"pptID","fileName","age","gender","nationality","firstLang","highestEdu","condition","videoCond","questionCond","trial","clipName","question","response","answer","RT","answerNum","variance","lowVariance"
1031,"/home/madeleine/Projects/PLY001/data/10312511698_data.csv",29,"male","American","English","BachelorsDegree",4,"full","specific",1,"excitedChild","openBox",NA,NA,33065,NA,1.61255411255411,0
1031,"/home/madeleine/Projects/PLY001/data/10312511698_data.csv",29,"male","American","English","BachelorsDegree",4,"full","specific",2,"excitedChild","age",6,NA,11262,6,1.61255411255411,0
1031,"/home/madeleine/Projects/PLY001/data/10312511698_data.csv",29,"male","American","English","BachelorsDegree",4,"full","specific",3,"excitedChild","gettingOnWell",0,"yes",4127,0,1.61255411255411,0
1031,"/home/madeleine/Projects/PLY001/data/10312511698_data.csv",29,"male","American","English","BachelorsDegree",4,"full","specific",4,"excitedChild","relationshipBetweenCharacters",1,"neutral",2820,1,1.61255411255411,0
1031,"/home/madeleine/Projects/PLY001/data/10312511698_data.csv",29,"male","American","English","BachelorsDegree",4,"full","specific",5,"excitedChild","workingTogether",2,"no",2510,2,1.61255411255411,0
1031,"/home/madeleine/Projects/PLY001/data/10312511698_data.csv",29,"male","American","English","BachelorsDegree",4,"full","specific",6,"excitedChild","leftDominant",2,"neutral",12046,2,1.61255411255411,0
1031,"/home/madeleine/Projects/PLY001/data/10312511698_data.csv",29,"male","American","English","BachelorsDegree",4,"full","specific",7,"excitedChild","rightDominant",2,"neutral",12046,2,1.61255411255411,0
1031,"/home/madeleine/Projects/PLY001/data/10312511698_data.csv",29,"male","American","English","BachelorsDegree",4,"full","specific",8,"excitedChild","leftCooperative",1,"disagree",4821,1,1.61255411255411,0
1031,"/home/madeleine/Projects/PLY001/data/10312511698_data.csv",29,"male","American","English","BachelorsDegree",4,"full","specific",9,"excitedChild","rightCooperative",1,"disagree",4821,1,1.61255411255411,0
1031,"/home/madeleine/Projects/PLY001/data/10312511698_data.csv",29,"male","American","English","BachelorsDegree",4,"full","specific",10,"excitedChild","leftCompetitive",1,"disagree",6949,1,1.61255411255411,0
1031,"/home/madeleine/Projects/PLY001/data/10312511698_data.csv",29,"male","American","English","BachelorsDegree",4,"full","specific",11,"excitedChild","rightCompetitive",3,"agree",6949,3,1.61255411255411,0
1031,"/home/madeleine/Projects/PLY001/data/10312511698_data.csv",29,"male","American","English","BachelorsDegree",4,"full","specific",12,"excitedChild","leftFriendly",1,"disagree",3884,1,1.61255411255411,0
1031,"/home/madeleine/Projects/PLY001/data/10312511698_data.csv",29,"male","American","English","BachelorsDegree",4,"full","specific",13,"excitedChild","rightFriendly",3,"agree",3884,3,1.61255411255411,0
1031,"/home/madeleine/Projects/PLY001/data/10312511698_data.csv",29,"male","American","English","BachelorsDegree",4,"full","specific",14,"excitedChild","leftAggressive",4,"stronglyAgree",4190,4,1.61255411255411,0
1031,"/home/madeleine/Projects/PLY001/data/10312511698_data.csv",29,"male","American","English","BachelorsDegree",4,"full","specific",15,"excitedChild","rightAggressive",0,"stronglyDisagree",4190,0,1.61255411255411,0
1031,"/home/madeleine/Projects/PLY001/data/10312511698_data.csv",29,"male","American","English","BachelorsDegree",4,"full","specific",16,"excitedChild","leftEngaged",0,"stronglyDisagree",4621,0,1.61255411255411,0
1031,"/home/madeleine/Projects/PLY001/data/10312511698_data.csv",29,"male","American","English","BachelorsDegree",4,"full","specific",17,"excitedChild","rightEngaged",4,"stronglyAgree",4621,4,1.61255411255411,0
1031,"/home/madeleine/Projects/PLY001/data/10312511698_data.csv",29,"male","American","English","BachelorsDegree",4,"full","specific",18,"excitedChild","leftFearful",1,"disagree",5477,1,1.61255411255411,0
1031,"/home/madeleine/Projects/PLY001/data/10312511698_data.csv",29,"male","American","English","BachelorsDegree",4,"full","specific",19,"excitedChild","rightFearful",1,"disagree",5477,1,1.61255411255411,0
1031,"/home/madeleine/Projects/PLY001/data/10312511698_data.csv",29,"male","American","English","BachelorsDegree",4,"full","specific",20,"excitedChild","leftSad",1,"disagree",3374,1,1.61255411255411,0
1031,"/home/madeleine/Projects/PLY001/data/10312511698_data.csv",29,"male","American","English","BachelorsDegree",4,"full","specific",21,"excitedChild","rightSad",1,"disagree",3374,1,1.61255411255411,0
1031,"/home/madeleine/Projects/PLY001/data/10312511698_data.csv",29,"male","American","English","BachelorsDegree",4,"full","specific",22,"excitedChild","leftContent",2,"neutral",3213,2,1.61255411255411,0
1031,"/home/madeleine/Projects/PLY001/data/10312511698_data.csv",29,"male","American","English","BachelorsDegree",4,"full","specific",23,"excitedChild","rightContent",2,"neutral",3213,2,1.61255411255411,0
1031,"/home/madeleine/Projects/PLY001/data/10312511698_data.csv",29,"male","American","English","BachelorsDegree",4,"full","specific",24,"excitedChild","leftAngry",3,"agree",3989,3,1.61255411255411,0
1031,"/home/madeleine/Projects/PLY001/data/10312511698_data.csv",29,"male","American","English","BachelorsDegree",4,"full","specific",25,"excitedChild","rightAngry",0,"stronglyDisagree",3989,0,1.61255411255411,0
1031,"/home/madeleine/Projects/PLY001/data/10312511698_data.csv",29,"male","American","English","BachelorsDegree",4,"full","specific",26,"excitedChild","leftAmused",4,"stronglyAgree",4207,4,1.61255411255411,0
1031,"/home/madeleine/Projects/PLY001/data/10312511698_data.csv",29,"male","American","English","BachelorsDegree",4,"full","specific",27,"excitedChild","rightAmused",2,"neutral",4207,2,1.61255411255411,0
1031,"/home/madeleine/Projects/PLY001/data/10312511698_data.csv",29,"male","American","English","BachelorsDegree",4,"full","specific",28,"talk1Watch1Play","openBox",NA,NA,19192,NA,3.2987012987013,0
1031,"/home/madeleine/Projects/PLY001/data/10312511698_data.csv",29,"male","American","English","BachelorsDegree",4,"full","specific",29,"talk1Watch1Play","age",6,NA,5175,6,3.2987012987013,0
1031,"/home/madeleine/Projects/PLY001/data/10312511698_data.csv",29,"male","American","English","BachelorsDegree",4,"full","specific",30,"talk1Watch1Play","gettingOnWell",0,"yes",5374,0,3.2987012987013,0
1031,"/home/madeleine/Projects/PLY001/data/10312511698_data.csv",29,"male","American","English","BachelorsDegree",4,"full","specific",31,"talk1Watch1Play","relationshipBetweenCharacters",0,"friends",1756,0,3.2987012987013,0
1031,"/home/madeleine/Projects/PLY001/data/10312511698_data.csv",29,"male","American","English","BachelorsDegree",4,"full","specific",32,"talk1Watch1Play","workingTogether",0,"yes",1845,0,3.2987012987013,0
1031,"/home/madeleine/Projects/PLY001/data/10312511698_data.csv",29,"male","American","English","BachelorsDegree",4,"full","specific",33,"talk1Watch1Play","leftDominant",3,"agree",5983,3,3.2987012987013,0
1031,"/home/madeleine/Projects/PLY001/data/10312511698_data.csv",29,"male","American","English","BachelorsDegree",4,"full","specific",34,"talk1Watch1Play","rightDominant",2,"neutral",5983,2,3.2987012987013,0
1031,"/home/madeleine/Projects/PLY001/data/10312511698_data.csv",29,"male","American","English","BachelorsDegree",4,"full","specific",35,"talk1Watch1Play","leftCooperative",4,"stronglyAgree",3294,4,3.2987012987013,0
1031,"/home/madeleine/Projects/PLY001/data/10312511698_data.csv",29,"male","American","English","BachelorsDegree",4,"full","specific",36,"talk1Watch1Play","rightCooperative",4,"stronglyAgree",3294,4,3.2987012987013,0
1031,"/home/madeleine/Projects/PLY001/data/10312511698_data.csv",29,"male","American","English","BachelorsDegree",4,"full","specific",37,"talk1Watch1Play","leftCompetitive",2,"neutral",3100,2,3.2987012987013,0
1031,"/home/madeleine/Projects/PLY001/data/10312511698_data.csv",29,"male","American","English","BachelorsDegree",4,"full","specific",38,"talk1Watch1Play","rightCompetitive",2,"neutral",3100,2,3.2987012987013,0
1031,"/home/madeleine/Projects/PLY001/data/10312511698_data.csv",29,"male","American","English","BachelorsDegree",4,"full","specific",39,"talk1Watch1Play","leftFriendly",4,"stronglyAgree",3102,4,3.2987012987013,0
1031,"/home/madeleine/Projects/PLY001/data/10312511698_data.csv",29,"male","American","English","BachelorsDegree",4,"full","specific",40,"talk1Watch1Play","rightFriendly",4,"stronglyAgree",3102,4,3.2987012987013,0
1031,"/home/madeleine/Projects/PLY001/data/10312511698_data.csv",29,"male","American","English","BachelorsDegree",4,"full","specific",41,"talk1Watch1Play","leftAggressive",0,"stronglyDisagree",3565,0,3.2987012987013,0
1031,"/home/madeleine/Projects/PLY001/data/10312511698_data.csv",29,"male","American","English","BachelorsDegree",4,"full","specific",42,"talk1Watch1Play","rightAggressive",0,"stronglyDisagree",3565,0,3.2987012987013,0
1031,"/home/madeleine/Projects/PLY001/data/10312511698_data.csv",29,"male","American","English","BachelorsDegree",4,"full","specific",43,"talk1Watch1Play","leftEngaged",4,"stronglyAgree",3659,4,3.2987012987013,0
1031,"/home/madeleine/Projects/PLY001/data/10312511698_data.csv",29,"male","American","English","BachelorsDegree",4,"full","specific",44,"talk1Watch1Play","rightEngaged",3,"agree",3659,3,3.2987012987013,0
1031,"/home/madeleine/Projects/PLY001/data/10312511698_data.csv",29,"male","American","English","BachelorsDegree",4,"full","specific",45,"talk1Watch1Play","leftFearful",0,"stronglyDisagree",3077,0,3.2987012987013,0
1031,"/home/madeleine/Projects/PLY001/data/10312511698_data.csv",29,"male","American","English","BachelorsDegree",4,"full","specific",46,"talk1Watch1Play","rightFearful",0,"stronglyDisagree",3077,0,3.2987012987013,0
1031,"/home/madeleine/Projects/PLY001/data/10312511698_data.csv",29,"male","American","English","BachelorsDegree",4,"full","specific",47,"talk1Watch1Play","leftSad",0,"stronglyDisagree",3381,0,3.2987012987013,0
1031,"/home/madeleine/Projects/PLY001/data/10312511698_data.csv",29,"male","American","English","BachelorsDegree",4,"full","specific",48,"talk1Watch1Play","rightSad",0,"stronglyDisagree",3381,0,3.2987012987013,0
1031,"/home/madeleine/Projects/PLY001/data/10312511698_data.csv",29,"male","American","English","BachelorsDegree",4,"full","specific",49,"talk1Watch1Play","leftContent",4,"stronglyAgree",3212,4,3.2987012987013,0
1031,"/home/madeleine/Projects/PLY001/data/10312511698_data.csv",29,"male","American","English","BachelorsDegree",4,"full","specific",50,"talk1Watch1Play","rightContent",4,"stronglyAgree",3212,4,3.2987012987013,0
1031,"/home/madeleine/Projects/PLY001/data/10312511698_data.csv",29,"male","American","English","BachelorsDegree",4,"full","specific",51,"talk1Watch1Play","leftAngry",0,"stronglyDisagree",2710,0,3.2987012987013,0
1031,"/home/madeleine/Projects/PLY001/data/10312511698_data.csv",29,"male","American","English","BachelorsDegree",4,"full","specific",52,"talk1Watch1Play","rightAngry",0,"stronglyDisagree",2710,0,3.2987012987013,0
1031,"/home/madeleine/Projects/PLY001/data/10312511698_data.csv",29,"male","American","English","BachelorsDegree",4,"full","specific",53,"talk1Watch1Play","leftAmused",4,"stronglyAgree",7934,4,3.2987012987013,0
1031,"/home/madeleine/Projects/PLY001/data/10312511698_data.csv",29,"male","American","English","BachelorsDegree",4,"full","specific",54,"talk1Watch1Play","rightAmused",4,"stronglyAgree",7934,4,3.2987012987013,0
1031,"/home/madeleine/Projects/PLY001/data/10312511698_data.csv",29,"male","American","English","BachelorsDegree",4,"full","specific",55,"1Laugh1PushAway","openBox",NA,NA,21109,NA,2.7034632034632,0
1031,"/home/madeleine/Projects/PLY001/data/10312511698_data.csv",29,"male","American","English","BachelorsDegree",4,"full","specific",56,"1Laugh1PushAway","age",6,NA,2740,6,2.7034632034632,0
1031,"/home/madeleine/Projects/PLY001/data/10312511698_data.csv",29,"male","American","English","BachelorsDegree",4,"full","specific",57,"1Laugh1PushAway","gettingOnWell",2,"no",2302,2,2.7034632034632,0
1031,"/home/madeleine/Projects/PLY001/data/10312511698_data.csv",29,"male","American","English","BachelorsDegree",4,"full","specific",58,"1Laugh1PushAway","relationshipBetweenCharacters",2,"notFriends",7525,2,2.7034632034632,0
1031,"/home/madeleine/Projects/PLY001/data/10312511698_data.csv",29,"male","American","English","BachelorsDegree",4,"full","specific",59,"1Laugh1PushAway","workingTogether",2,"no",1798,2,2.7034632034632,0
1031,"/home/madeleine/Projects/PLY001/data/10312511698_data.csv",29,"male","American","English","BachelorsDegree",4,"full","specific",60,"1Laugh1PushAway","leftDominant",0,"stronglyDisagree",3925,0,2.7034632034632,0
1031,"/home/madeleine/Projects/PLY001/data/10312511698_data.csv",29,"male","American","English","BachelorsDegree",4,"full","specific",61,"1Laugh1PushAway","rightDominant",4,"stronglyAgree",3925,4,2.7034632034632,0
1031,"/home/madeleine/Projects/PLY001/data/10312511698_data.csv",29,"male","American","English","BachelorsDegree",4,"full","specific",62,"1Laugh1PushAway","leftCooperative",3,"agree",18581,3,2.7034632034632,0
1031,"/home/madeleine/Projects/PLY001/data/10312511698_data.csv",29,"male","American","English","BachelorsDegree",4,"full","specific",63,"1Laugh1PushAway","rightCooperative",0,"stronglyDisagree",18581,0,2.7034632034632,0
1031,"/home/madeleine/Projects/PLY001/data/10312511698_data.csv",29,"male","American","English","BachelorsDegree",4,"full","specific",64,"1Laugh1PushAway","leftCompetitive",1,"disagree",10139,1,2.7034632034632,0
1031,"/home/madeleine/Projects/PLY001/data/10312511698_data.csv",29,"male","American","English","BachelorsDegree",4,"full","specific",65,"1Laugh1PushAway","rightCompetitive",3,"agree",10139,3,2.7034632034632,0
1031,"/home/madeleine/Projects/PLY001/data/10312511698_data.csv",29,"male","American","English","BachelorsDegree",4,"full","specific",66,"1Laugh1PushAway","leftFriendly",4,"stronglyAgree",3324,4,2.7034632034632,0
1031,"/home/madeleine/Projects/PLY001/data/10312511698_data.csv",29,"male","American","English","BachelorsDegree",4,"full","specific",67,"1Laugh1PushAway","rightFriendly",1,"disagree",3324,1,2.7034632034632,0
1031,"/home/madeleine/Projects/PLY001/data/10312511698_data.csv",29,"male","American","English","BachelorsDegree",4,"full","specific",68,"1Laugh1PushAway","leftAggressive",0,"stronglyDisagree",3317,0,2.7034632034632,0
1031,"/home/madeleine/Projects/PLY001/data/10312511698_data.csv",29,"male","American","English","BachelorsDegree",4,"full","specific",69,"1Laugh1PushAway","rightAggressive",4,"stronglyAgree",3317,4,2.7034632034632,0
1031,"/home/madeleine/Projects/PLY001/data/10312511698_data.csv",29,"male","American","English","BachelorsDegree",4,"full","specific",70,"1Laugh1PushAway","leftEngaged",1,"disagree",4309,1,2.7034632034632,0
1031,"/home/madeleine/Projects/PLY001/data/10312511698_data.csv",29,"male","American","English","BachelorsDegree",4,"full","specific",71,"1Laugh1PushAway","rightEngaged",4,"stronglyAgree",4309,4,2.7034632034632,0
1031,"/home/madeleine/Projects/PLY001/data/10312511698_data.csv",29,"male","American","English","BachelorsDegree",4,"full","specific",72,"1Laugh1PushAway","leftFearful",0,"stronglyDisagree",3660,0,2.7034632034632,0
1031,"/home/madeleine/Projects/PLY001/data/10312511698_data.csv",29,"male","American","English","BachelorsDegree",4,"full","specific",73,"1Laugh1PushAway","rightFearful",0,"stronglyDisagree",3660,0,2.7034632034632,0
1031,"/home/madeleine/Projects/PLY001/data/10312511698_data.csv",29,"male","American","English","BachelorsDegree",4,"full","specific",74,"1Laugh1PushAway","leftSad",0,"stronglyDisagree",2470,0,2.7034632034632,0
1031,"/home/madeleine/Projects/PLY001/data/10312511698_data.csv",29,"male","American","English","BachelorsDegree",4,"full","specific",75,"1Laugh1PushAway","rightSad",0,"stronglyDisagree",2470,0,2.7034632034632,0
1031,"/home/madeleine/Projects/PLY001/data/10312511698_data.csv",29,"male","American","English","BachelorsDegree",4,"full","specific",76,"1Laugh1PushAway","leftContent",2,"neutral",2938,2,2.7034632034632,0
1031,"/home/madeleine/Projects/PLY001/data/10312511698_data.csv",29,"male","American","English","BachelorsDegree",4,"full","specific",77,"1Laugh1PushAway","rightContent",2,"neutral",2938,2,2.7034632034632,0
1031,"/home/madeleine/Projects/PLY001/data/10312511698_data.csv",29,"male","American","English","BachelorsDegree",4,"full","specific",78,"1Laugh1PushAway","leftAngry",0,"stronglyDisagree",3517,0,2.7034632034632,0
1031,"/home/madeleine/Projects/PLY001/data/10312511698_data.csv",29,"male","American","English","BachelorsDegree",4,"full","specific",79,"1Laugh1PushAway","rightAngry",4,"stronglyAgree",3517,4,2.7034632034632,0
1031,"/home/madeleine/Projects/PLY001/data/10312511698_data.csv",29,"male","American","English","BachelorsDegree",4,"full","specific",80,"1Laugh1PushAway","leftAmused",3,"agree",3219,3,2.7034632034632,0
1031,"/home/madeleine/Projects/PLY001/data/10312511698_data.csv",29,"male","American","English","BachelorsDegree",4,"full","specific",81,"1Laugh1PushAway","rightAmused",1,"disagree",3219,1,2.7034632034632,0
1031,"/home/madeleine/Projects/PLY001/data/10312511698_data.csv",29,"male","American","English","BachelorsDegree",4,"full","specific",82,"turnTaking","openBox",NA,NA,16595,NA,3.06493506493506,0
1031,"/home/madeleine/Projects/PLY001/data/10312511698_data.csv",29,"male","American","English","BachelorsDegree",4,"full","specific",83,"turnTaking","age",7,NA,2661,7,3.06493506493506,0
1031,"/home/madeleine/Projects/PLY001/data/10312511698_data.csv",29,"male","American","English","BachelorsDegree",4,"full","specific",84,"turnTaking","gettingOnWell",0,"yes",1732,0,3.06493506493506,0
1031,"/home/madeleine/Projects/PLY001/data/10312511698_data.csv",29,"male","American","English","BachelorsDegree",4,"full","specific",85,"turnTaking","relationshipBetweenCharacters",0,"friends",1661,0,3.06493506493506,0
1031,"/home/madeleine/Projects/PLY001/data/10312511698_data.csv",29,"male","American","English","BachelorsDegree",4,"full","specific",86,"turnTaking","workingTogether",0,"yes",1716,0,3.06493506493506,0
1031,"/home/madeleine/Projects/PLY001/data/10312511698_data.csv",29,"male","American","English","BachelorsDegree",4,"full","specific",87,"turnTaking","leftDominant",0,"stronglyDisagree",3421,0,3.06493506493506,0
1031,"/home/madeleine/Projects/PLY001/data/10312511698_data.csv",29,"male","American","English","BachelorsDegree",4,"full","specific",88,"turnTaking","rightDominant",0,"stronglyDisagree",3421,0,3.06493506493506,0
1031,"/home/madeleine/Projects/PLY001/data/10312511698_data.csv",29,"male","American","English","BachelorsDegree",4,"full","specific",89,"turnTaking","leftCooperative",4,"stronglyAgree",2292,4,3.06493506493506,0
1031,"/home/madeleine/Projects/PLY001/data/10312511698_data.csv",29,"male","American","English","BachelorsDegree",4,"full","specific",90,"turnTaking","rightCooperative",4,"stronglyAgree",2292,4,3.06493506493506,0
1031,"/home/madeleine/Projects/PLY001/data/10312511698_data.csv",29,"male","American","English","BachelorsDegree",4,"full","specific",91,"turnTaking","leftCompetitive",2,"neutral",3059,2,3.06493506493506,0
1031,"/home/madeleine/Projects/PLY001/data/10312511698_data.csv",29,"male","American","English","BachelorsDegree",4,"full","specific",92,"turnTaking","rightCompetitive",2,"neutral",3059,2,3.06493506493506,0
1031,"/home/madeleine/Projects/PLY001/data/10312511698_data.csv",29,"male","American","English","BachelorsDegree",4,"full","specific",93,"turnTaking","leftFriendly",4,"stronglyAgree",2812,4,3.06493506493506,0
1031,"/home/madeleine/Projects/PLY001/data/10312511698_data.csv",29,"male","American","English","BachelorsDegree",4,"full","specific",94,"turnTaking","rightFriendly",4,"stronglyAgree",2812,4,3.06493506493506,0
1031,"/home/madeleine/Projects/PLY001/data/10312511698_data.csv",29,"male","American","English","BachelorsDegree",4,"full","specific",95,"turnTaking","leftAggressive",0,"stronglyDisagree",2907,0,3.06493506493506,0
1031,"/home/madeleine/Projects/PLY001/data/10312511698_data.csv",29,"male","American","English","BachelorsDegree",4,"full","specific",96,"turnTaking","rightAggressive",0,"stronglyDisagree",2907,0,3.06493506493506,0
1031,"/home/madeleine/Projects/PLY001/data/10312511698_data.csv",29,"male","American","English","BachelorsDegree",4,"full","specific",97,"turnTaking","leftEngaged",4,"stronglyAgree",2154,4,3.06493506493506,0
1031,"/home/madeleine/Projects/PLY001/data/10312511698_data.csv",29,"male","American","English","BachelorsDegree",4,"full","specific",98,"turnTaking","rightEngaged",4,"stronglyAgree",2154,4,3.06493506493506,0
1031,"/home/madeleine/Projects/PLY001/data/10312511698_data.csv",29,"male","American","English","BachelorsDegree",4,"full","specific",99,"turnTaking","leftFearful",0,"stronglyDisagree",3005,0,3.06493506493506,0
1031,"/home/madeleine/Projects/PLY001/data/10312511698_data.csv",29,"male","American","English","BachelorsDegree",4,"full","specific",100,"turnTaking","rightFearful",0,"stronglyDisagree",3005,0,3.06493506493506,0
1031,"/home/madeleine/Projects/PLY001/data/10312511698_data.csv",29,"male","American","English","BachelorsDegree",4,"full","specific",101,"turnTaking","leftSad",0,"stronglyDisagree",2901,0,3.06493506493506,0
1031,"/home/madeleine/Projects/PLY001/data/10312511698_data.csv",29,"male","American","English","BachelorsDegree",4,"full","specific",102,"turnTaking","rightSad",0,"stronglyDisagree",2901,0,3.06493506493506,0
1031,"/home/madeleine/Projects/PLY001/data/10312511698_data.csv",29,"male","American","English","BachelorsDegree",4,"full","specific",103,"turnTaking","leftContent",2,"neutral",3044,2,3.06493506493506,0
1031,"/home/madeleine/Projects/PLY001/data/10312511698_data.csv",29,"male","American","English","BachelorsDegree",4,"full","specific",104,"turnTaking","rightContent",2,"neutral",3044,2,3.06493506493506,0
1031,"/home/madeleine/Projects/PLY001/data/10312511698_data.csv",29,"male","American","English","BachelorsDegree",4,"full","specific",105,"turnTaking","leftAngry",0,"stronglyDisagree",3172,0,3.06493506493506,0
1031,"/home/madeleine/Projects/PLY001/data/10312511698_data.csv",29,"male","American","English","BachelorsDegree",4,"full","specific",106,"turnTaking","rightAngry",0,"stronglyDisagree",3172,0,3.06493506493506,0
1031,"/home/madeleine/Projects/PLY001/data/10312511698_data.csv",29,"male","American","English","BachelorsDegree",4,"full","specific",107,"turnTaking","leftAmused",3,"agree",3371,3,3.06493506493506,0
1031,"/home/madeleine/Projects/PLY001/data/10312511698_data.csv",29,"male","American","English","BachelorsDegree",4,"full","specific",108,"turnTaking","rightAmused",3,"agree",3371,3,3.06493506493506,0
118,"/home/madeleine/Projects/PLY001/data/1181514433_data2.csv",23,"male","American","English","BachelorsDegree",2,"skeleton","specific",1,"1PushBothExcited","openBox",NA,NA,30617,NA,2.08874458874459,0
118,"/home/madeleine/Projects/PLY001/data/1181514433_data2.csv",23,"male","American","English","BachelorsDegree",2,"skeleton","specific",2,"1PushBothExcited","age",NA,NA,6901,57,2.08874458874459,0
118,"/home/madeleine/Projects/PLY001/data/1181514433_data2.csv",23,"male","American","English","BachelorsDegree",2,"skeleton","specific",3,"1PushBothExcited","gettingOnWell",1,"notsure",2278,1,2.08874458874459,0
118,"/home/madeleine/Projects/PLY001/data/1181514433_data2.csv",23,"male","American","English","BachelorsDegree",2,"skeleton","specific",4,"1PushBothExcited","relationshipBetweenCharacters",0,"friends",3179,0,2.08874458874459,0
118,"/home/madeleine/Projects/PLY001/data/1181514433_data2.csv",23,"male","American","English","BachelorsDegree",2,"skeleton","specific",5,"1PushBothExcited","workingTogether",0,"yes",3697,0,2.08874458874459,0
118,"/home/madeleine/Projects/PLY001/data/1181514433_data2.csv",23,"male","American","English","BachelorsDegree",2,"skeleton","specific",6,"1PushBothExcited","leftDominant",1,"disagree",3989,1,2.08874458874459,0
118,"/home/madeleine/Projects/PLY001/data/1181514433_data2.csv",23,"male","American","English","BachelorsDegree",2,"skeleton","specific",7,"1PushBothExcited","rightDominant",4,"stronglyAgree",3989,4,2.08874458874459,0
118,"/home/madeleine/Projects/PLY001/data/1181514433_data2.csv",23,"male","American","English","BachelorsDegree",2,"skeleton","specific",8,"1PushBothExcited","leftCooperative",2,"neutral",7037,2,2.08874458874459,0
118,"/home/madeleine/Projects/PLY001/data/1181514433_data2.csv",23,"male","American","English","BachelorsDegree",2,"skeleton","specific",9,"1PushBothExcited","rightCooperative",0,"stronglyDisagree",7037,0,2.08874458874459,0
118,"/home/madeleine/Projects/PLY001/data/1181514433_data2.csv",23,"male","American","English","BachelorsDegree",2,"skeleton","specific",10,"1PushBothExcited","leftCompetitive",1,"disagree",4751,1,2.08874458874459,0
118,"/home/madeleine/Projects/PLY001/data/1181514433_data2.csv",23,"male","American","English","BachelorsDegree",2,"skeleton","specific",11,"1PushBothExcited","rightCompetitive",4,"stronglyAgree",4751,4,2.08874458874459,0
118,"/home/madeleine/Projects/PLY001/data/1181514433_data2.csv",23,"male","American","English","BachelorsDegree",2,"skeleton","specific",12,"1PushBothExcited","leftFriendly",2,"neutral",4275,2,2.08874458874459,0
118,"/home/madeleine/Projects/PLY001/data/1181514433_data2.csv",23,"male","American","English","BachelorsDegree",2,"skeleton","specific",13,"1PushBothExcited","rightFriendly",1,"disagree",4275,1,2.08874458874459,0
118,"/home/madeleine/Projects/PLY001/data/1181514433_data2.csv",23,"male","American","English","BachelorsDegree",2,"skeleton","specific",14,"1PushBothExcited","leftAggressive",0,"stronglyDisagree",4824,0,2.08874458874459,0
118,"/home/madeleine/Projects/PLY001/data/1181514433_data2.csv",23,"male","American","English","BachelorsDegree",2,"skeleton","specific",15,"1PushBothExcited","rightAggressive",3,"agree",4824,3,2.08874458874459,0
118,"/home/madeleine/Projects/PLY001/data/1181514433_data2.csv",23,"male","American","English","BachelorsDegree",2,"skeleton","specific",16,"1PushBothExcited","leftEngaged",4,"stronglyAgree",3381,4,2.08874458874459,0
118,"/home/madeleine/Projects/PLY001/data/1181514433_data2.csv",23,"male","American","English","BachelorsDegree",2,"skeleton","specific",17,"1PushBothExcited","rightEngaged",4,"stronglyAgree",3381,4,2.08874458874459,0
118,"/home/madeleine/Projects/PLY001/data/1181514433_data2.csv",23,"male","American","English","BachelorsDegree",2,"skeleton","specific",18,"1PushBothExcited","leftFearful",1,"disagree",5343,1,2.08874458874459,0
118,"/home/madeleine/Projects/PLY001/data/1181514433_data2.csv",23,"male","American","English","BachelorsDegree",2,"skeleton","specific",19,"1PushBothExcited","rightFearful",0,"stronglyDisagree",5343,0,2.08874458874459,0
118,"/home/madeleine/Projects/PLY001/data/1181514433_data2.csv",23,"male","American","English","BachelorsDegree",2,"skeleton","specific",20,"1PushBothExcited","leftSad",3,"agree",3845,3,2.08874458874459,0
118,"/home/madeleine/Projects/PLY001/data/1181514433_data2.csv",23,"male","American","English","BachelorsDegree",2,"skeleton","specific",21,"1PushBothExcited","rightSad",0,"stronglyDisagree",3845,0,2.08874458874459,0
118,"/home/madeleine/Projects/PLY001/data/1181514433_data2.csv",23,"male","American","English","BachelorsDegree",2,"skeleton","specific",22,"1PushBothExcited","leftContent",2,"neutral",4095,2,2.08874458874459,0
118,"/home/madeleine/Projects/PLY001/data/1181514433_data2.csv",23,"male","American","English","BachelorsDegree",2,"skeleton","specific",23,"1PushBothExcited","rightContent",2,"neutral",4095,2,2.08874458874459,0
118,"/home/madeleine/Projects/PLY001/data/1181514433_data2.csv",23,"male","American","English","BachelorsDegree",2,"skeleton","specific",24,"1PushBothExcited","leftAngry",1,"disagree",3571,1,2.08874458874459,0
118,"/home/madeleine/Projects/PLY001/data/1181514433_data2.csv",23,"male","American","English","BachelorsDegree",2,"skeleton","specific",25,"1PushBothExcited","rightAngry",3,"agree",3571,3,2.08874458874459,0
118,"/home/madeleine/Projects/PLY001/data/1181514433_data2.csv",23,"male","American","English","BachelorsDegree",2,"skeleton","specific",26,"1PushBothExcited","leftAmused",1,"disagree",3545,1,2.08874458874459,0
118,"/home/madeleine/Projects/PLY001/data/1181514433_data2.csv",23,"male","American","English","BachelorsDegree",2,"skeleton","specific",27,"1PushBothExcited","rightAmused",0,"stronglyDisagree",3545,0,2.08874458874459,0
118,"/home/madeleine/Projects/PLY001/data/1181514433_data2.csv",23,"male","American","English","BachelorsDegree",2,"skeleton","specific",28,"togetherAndTalk","openBox",NA,NA,24514,NA,3.51731601731602,0
118,"/home/madeleine/Projects/PLY001/data/1181514433_data2.csv",23,"male","American","English","BachelorsDegree",2,"skeleton","specific",29,"togetherAndTalk","age",NA,NA,17082,68,3.51731601731602,0
118,"/home/madeleine/Projects/PLY001/data/1181514433_data2.csv",23,"male","American","English","BachelorsDegree",2,"skeleton","specific",30,"togetherAndTalk","gettingOnWell",0,"yes",2558,0,3.51731601731602,0
118,"/home/madeleine/Projects/PLY001/data/1181514433_data2.csv",23,"male","American","English","BachelorsDegree",2,"skeleton","specific",31,"togetherAndTalk","relationshipBetweenCharacters",0,"friends",1767,0,3.51731601731602,0
118,"/home/madeleine/Projects/PLY001/data/1181514433_data2.csv",23,"male","American","English","BachelorsDegree",2,"skeleton","specific",32,"togetherAndTalk","workingTogether",0,"yes",1710,0,3.51731601731602,0
118,"/home/madeleine/Projects/PLY001/data/1181514433_data2.csv",23,"male","American","English","BachelorsDegree",2,"skeleton","specific",33,"togetherAndTalk","leftDominant",1,"disagree",3103,1,3.51731601731602,0
118,"/home/madeleine/Projects/PLY001/data/1181514433_data2.csv",23,"male","American","English","BachelorsDegree",2,"skeleton","specific",34,"togetherAndTalk","rightDominant",1,"disagree",3103,1,3.51731601731602,0
118,"/home/madeleine/Projects/PLY001/data/1181514433_data2.csv",23,"male","American","English","BachelorsDegree",2,"skeleton","specific",35,"togetherAndTalk","leftCooperative",4,"stronglyAgree",2879,4,3.51731601731602,0
118,"/home/madeleine/Projects/PLY001/data/1181514433_data2.csv",23,"male","American","English","BachelorsDegree",2,"skeleton","specific",36,"togetherAndTalk","rightCooperative",4,"stronglyAgree",2879,4,3.51731601731602,0
118,"/home/madeleine/Projects/PLY001/data/1181514433_data2.csv",23,"male","American","English","BachelorsDegree",2,"skeleton","specific",37,"togetherAndTalk","leftCompetitive",0,"stronglyDisagree",3483,0,3.51731601731602,0
118,"/home/madeleine/Projects/PLY001/data/1181514433_data2.csv",23,"male","American","English","BachelorsDegree",2,"skeleton","specific",38,"togetherAndTalk","rightCompetitive",0,"stronglyDisagree",3483,0,3.51731601731602,0
118,"/home/madeleine/Projects/PLY001/data/1181514433_data2.csv",23,"male","American","English","BachelorsDegree",2,"skeleton","specific",39,"togetherAndTalk","leftFriendly",4,"stronglyAgree",2821,4,3.51731601731602,0
118,"/home/madeleine/Projects/PLY001/data/1181514433_data2.csv",23,"male","American","English","BachelorsDegree",2,"skeleton","specific",40,"togetherAndTalk","rightFriendly",4,"stronglyAgree",2821,4,3.51731601731602,0
118,"/home/madeleine/Projects/PLY001/data/1181514433_data2.csv",23,"male","American","English","BachelorsDegree",2,"skeleton","specific",41,"togetherAndTalk","leftAggressive",0,"stronglyDisagree",3041,0,3.51731601731602,0
118,"/home/madeleine/Projects/PLY001/data/1181514433_data2.csv",23,"male","American","English","BachelorsDegree",2,"skeleton","specific",42,"togetherAndTalk","rightAggressive",0,"stronglyDisagree",3041,0,3.51731601731602,0
118,"/home/madeleine/Projects/PLY001/data/1181514433_data2.csv",23,"male","American","English","BachelorsDegree",2,"skeleton","specific",43,"togetherAndTalk","leftEngaged",4,"stronglyAgree",3458,4,3.51731601731602,0
118,"/home/madeleine/Projects/PLY001/data/1181514433_data2.csv",23,"male","American","English","BachelorsDegree",2,"skeleton","specific",44,"togetherAndTalk","rightEngaged",4,"stronglyAgree",3458,4,3.51731601731602,0
118,"/home/madeleine/Projects/PLY001/data/1181514433_data2.csv",23,"male","American","English","BachelorsDegree",2,"skeleton","specific",45,"togetherAndTalk","leftFearful",0,"stronglyDisagree",3449,0,3.51731601731602,0
118,"/home/madeleine/Projects/PLY001/data/1181514433_data2.csv",23,"male","American","English","BachelorsDegree",2,"skeleton","specific",46,"togetherAndTalk","rightFearful",0,"stronglyDisagree",3449,0,3.51731601731602,0
118,"/home/madeleine/Projects/PLY001/data/1181514433_data2.csv",23,"male","American","English","BachelorsDegree",2,"skeleton","specific",47,"togetherAndTalk","leftSad",0,"stronglyDisagree",2758,0,3.51731601731602,0
118,"/home/madeleine/Projects/PLY001/data/1181514433_data2.csv",23,"male","American","English","BachelorsDegree",2,"skeleton","specific",48,"togetherAndTalk","rightSad",0,"stronglyDisagree",2758,0,3.51731601731602,0
118,"/home/madeleine/Projects/PLY001/data/1181514433_data2.csv",23,"male","American","English","BachelorsDegree",2,"skeleton","specific",49,"togetherAndTalk","leftContent",4,"stronglyAgree",2773,4,3.51731601731602,0
118,"/home/madeleine/Projects/PLY001/data/1181514433_data2.csv",23,"male","American","English","BachelorsDegree",2,"skeleton","specific",50,"togetherAndTalk","rightContent",4,"stronglyAgree",2773,4,3.51731601731602,0
118,"/home/madeleine/Projects/PLY001/data/1181514433_data2.csv",23,"male","American","English","BachelorsDegree",2,"skeleton","specific",51,"togetherAndTalk","leftAngry",0,"stronglyDisagree",2620,0,3.51731601731602,0
118,"/home/madeleine/Projects/PLY001/data/1181514433_data2.csv",23,"male","American","English","BachelorsDegree",2,"skeleton","specific",52,"togetherAndTalk","rightAngry",0,"stronglyDisagree",2620,0,3.51731601731602,0
118,"/home/madeleine/Projects/PLY001/data/1181514433_data2.csv",23,"male","American","English","BachelorsDegree",2,"skeleton","specific",53,"togetherAndTalk","leftAmused",3,"agree",3916,3,3.51731601731602,0
118,"/home/madeleine/Projects/PLY001/data/1181514433_data2.csv",23,"male","American","English","BachelorsDegree",2,"skeleton","specific",54,"togetherAndTalk","rightAmused",2,"neutral",3916,2,3.51731601731602,0
118,"/home/madeleine/Projects/PLY001/data/1181514433_data2.csv",23,"male","American","English","BachelorsDegree",2,"skeleton","specific",55,"1Laugh1PushAway","openBox",NA,NA,25419,NA,3.61038961038961,0
118,"/home/madeleine/Projects/PLY001/data/1181514433_data2.csv",23,"male","American","English","BachelorsDegree",2,"skeleton","specific",56,"1Laugh1PushAway","age",NA,NA,10519,9,3.61038961038961,0
118,"/home/madeleine/Projects/PLY001/data/1181514433_data2.csv",23,"male","American","English","BachelorsDegree",2,"skeleton","specific",57,"1Laugh1PushAway","gettingOnWell",0,"yes",2283,0,3.61038961038961,0
118,"/home/madeleine/Projects/PLY001/data/1181514433_data2.csv",23,"male","American","English","BachelorsDegree",2,"skeleton","specific",58,"1Laugh1PushAway","relationshipBetweenCharacters",0,"friends",1873,0,3.61038961038961,0
118,"/home/madeleine/Projects/PLY001/data/1181514433_data2.csv",23,"male","American","English","BachelorsDegree",2,"skeleton","specific",59,"1Laugh1PushAway","workingTogether",0,"yes",2225,0,3.61038961038961,0
118,"/home/madeleine/Projects/PLY001/data/1181514433_data2.csv",23,"male","American","English","BachelorsDegree",2,"skeleton","specific",60,"1Laugh1PushAway","leftDominant",1,"disagree",4610,1,3.61038961038961,0
118,"/home/madeleine/Projects/PLY001/data/1181514433_data2.csv",23,"male","American","English","BachelorsDegree",2,"skeleton","specific",61,"1Laugh1PushAway","rightDominant",3,"agree",4610,3,3.61038961038961,0
118,"/home/madeleine/Projects/PLY001/data/1181514433_data2.csv",23,"male","American","English","BachelorsDegree",2,"skeleton","specific",62,"1Laugh1PushAway","leftCooperative",4,"stronglyAgree",4132,4,3.61038961038961,0
118,"/home/madeleine/Projects/PLY001/data/1181514433_data2.csv",23,"male","American","English","BachelorsDegree",2,"skeleton","specific",63,"1Laugh1PushAway","rightCooperative",4,"stronglyAgree",4132,4,3.61038961038961,0
118,"/home/madeleine/Projects/PLY001/data/1181514433_data2.csv",23,"male","American","English","BachelorsDegree",2,"skeleton","specific",64,"1Laugh1PushAway","leftCompetitive",0,"stronglyDisagree",3302,0,3.61038961038961,0
118,"/home/madeleine/Projects/PLY001/data/1181514433_data2.csv",23,"male","American","English","BachelorsDegree",2,"skeleton","specific",65,"1Laugh1PushAway","rightCompetitive",0,"stronglyDisagree",3302,0,3.61038961038961,0
118,"/home/madeleine/Projects/PLY001/data/1181514433_data2.csv",23,"male","American","English","BachelorsDegree",2,"skeleton","specific",66,"1Laugh1PushAway","leftFriendly",4,"stronglyAgree",4942,4,3.61038961038961,0
118,"/home/madeleine/Projects/PLY001/data/1181514433_data2.csv",23,"male","American","English","BachelorsDegree",2,"skeleton","specific",67,"1Laugh1PushAway","rightFriendly",4,"stronglyAgree",4942,4,3.61038961038961,0
118,"/home/madeleine/Projects/PLY001/data/1181514433_data2.csv",23,"male","American","English","BachelorsDegree",2,"skeleton","specific",68,"1Laugh1PushAway","leftAggressive",0,"stronglyDisagree",2612,0,3.61038961038961,0
118,"/home/madeleine/Projects/PLY001/data/1181514433_data2.csv",23,"male","American","English","BachelorsDegree",2,"skeleton","specific",69,"1Laugh1PushAway","rightAggressive",0,"stronglyDisagree",2612,0,3.61038961038961,0
118,"/home/madeleine/Projects/PLY001/data/1181514433_data2.csv",23,"male","American","English","BachelorsDegree",2,"skeleton","specific",70,"1Laugh1PushAway","leftEngaged",3,"agree",5739,3,3.61038961038961,0
118,"/home/madeleine/Projects/PLY001/data/1181514433_data2.csv",23,"male","American","English","BachelorsDegree",2,"skeleton","specific",71,"1Laugh1PushAway","rightEngaged",4,"stronglyAgree",5739,4,3.61038961038961,0
118,"/home/madeleine/Projects/PLY001/data/1181514433_data2.csv",23,"male","American","English","BachelorsDegree",2,"skeleton","specific",72,"1Laugh1PushAway","leftFearful",0,"stronglyDisagree",2563,0,3.61038961038961,0
118,"/home/madeleine/Projects/PLY001/data/1181514433_data2.csv",23,"male","American","English","BachelorsDegree",2,"skeleton","specific",73,"1Laugh1PushAway","rightFearful",0,"stronglyDisagree",2563,0,3.61038961038961,0
118,"/home/madeleine/Projects/PLY001/data/1181514433_data2.csv",23,"male","American","English","BachelorsDegree",2,"skeleton","specific",74,"1Laugh1PushAway","leftSad",0,"stronglyDisagree",2760,0,3.61038961038961,0
118,"/home/madeleine/Projects/PLY001/data/1181514433_data2.csv",23,"male","American","English","BachelorsDegree",2,"skeleton","specific",75,"1Laugh1PushAway","rightSad",0,"stronglyDisagree",2760,0,3.61038961038961,0
118,"/home/madeleine/Projects/PLY001/data/1181514433_data2.csv",23,"male","American","English","BachelorsDegree",2,"skeleton","specific",76,"1Laugh1PushAway","leftContent",4,"stronglyAgree",2439,4,3.61038961038961,0
118,"/home/madeleine/Projects/PLY001/data/1181514433_data2.csv",23,"male","American","English","BachelorsDegree",2,"skeleton","specific",77,"1Laugh1PushAway","rightContent",4,"stronglyAgree",2439,4,3.61038961038961,0
118,"/home/madeleine/Projects/PLY001/data/1181514433_data2.csv",23,"male","American","English","BachelorsDegree",2,"skeleton","specific",78,"1Laugh1PushAway","leftAngry",0,"stronglyDisagree",2350,0,3.61038961038961,0
118,"/home/madeleine/Projects/PLY001/data/1181514433_data2.csv",23,"male","American","English","BachelorsDegree",2,"skeleton","specific",79,"1Laugh1PushAway","rightAngry",0,"stronglyDisagree",2350,0,3.61038961038961,0
118,"/home/madeleine/Projects/PLY001/data/1181514433_data2.csv",23,"male","American","English","BachelorsDegree",2,"skeleton","specific",80,"1Laugh1PushAway","leftAmused",4,"stronglyAgree",2070,4,3.61038961038961,0
118,"/home/madeleine/Projects/PLY001/data/1181514433_data2.csv",23,"male","American","English","BachelorsDegree",2,"skeleton","specific",81,"1Laugh1PushAway","rightAmused",3,"agree",2070,3,3.61038961038961,0
118,"/home/madeleine/Projects/PLY001/data/1181514433_data2.csv",23,"male","American","English","BachelorsDegree",2,"skeleton","specific",82,"1Task1Watch","openBox",NA,NA,13739,NA,2.3030303030303,0
118,"/home/madeleine/Projects/PLY001/data/1181514433_data2.csv",23,"male","American","English","BachelorsDegree",2,"skeleton","specific",83,"1Task1Watch","age",79,NA,4850,79,2.3030303030303,0
118,"/home/madeleine/Projects/PLY001/data/1181514433_data2.csv",23,"male","American","English","BachelorsDegree",2,"skeleton","specific",84,"1Task1Watch","gettingOnWell",0,"yes",2220,0,2.3030303030303,0
118,"/home/madeleine/Projects/PLY001/data/1181514433_data2.csv",23,"male","American","English","BachelorsDegree",2,"skeleton","specific",85,"1Task1Watch","relationshipBetweenCharacters",1,"neutral",1863,1,2.3030303030303,0
118,"/home/madeleine/Projects/PLY001/data/1181514433_data2.csv",23,"male","American","English","BachelorsDegree",2,"skeleton","specific",86,"1Task1Watch","workingTogether",1,"notsure",3451,1,2.3030303030303,0
118,"/home/madeleine/Projects/PLY001/data/1181514433_data2.csv",23,"male","American","English","BachelorsDegree",2,"skeleton","specific",87,"1Task1Watch","leftDominant",4,"stronglyAgree",4956,4,2.3030303030303,0
118,"/home/madeleine/Projects/PLY001/data/1181514433_data2.csv",23,"male","American","English","BachelorsDegree",2,"skeleton","specific",88,"1Task1Watch","rightDominant",0,"stronglyDisagree",4956,0,2.3030303030303,0
118,"/home/madeleine/Projects/PLY001/data/1181514433_data2.csv",23,"male","American","English","BachelorsDegree",2,"skeleton","specific",89,"1Task1Watch","leftCooperative",4,"stronglyAgree",3965,4,2.3030303030303,0
118,"/home/madeleine/Projects/PLY001/data/1181514433_data2.csv",23,"male","American","English","BachelorsDegree",2,"skeleton","specific",90,"1Task1Watch","rightCooperative",2,"neutral",3965,2,2.3030303030303,0
118,"/home/madeleine/Projects/PLY001/data/1181514433_data2.csv",23,"male","American","English","BachelorsDegree",2,"skeleton","specific",91,"1Task1Watch","leftCompetitive",0,"stronglyDisagree",4194,0,2.3030303030303,0
118,"/home/madeleine/Projects/PLY001/data/1181514433_data2.csv",23,"male","American","English","BachelorsDegree",2,"skeleton","specific",92,"1Task1Watch","rightCompetitive",0,"stronglyDisagree",4194,0,2.3030303030303,0
118,"/home/madeleine/Projects/PLY001/data/1181514433_data2.csv",23,"male","American","English","BachelorsDegree",2,"skeleton","specific",93,"1Task1Watch","leftFriendly",3,"agree",5750,3,2.3030303030303,0
118,"/home/madeleine/Projects/PLY001/data/1181514433_data2.csv",23,"male","American","English","BachelorsDegree",2,"skeleton","specific",94,"1Task1Watch","rightFriendly",2,"neutral",5750,2,2.3030303030303,0
118,"/home/madeleine/Projects/PLY001/data/1181514433_data2.csv",23,"male","American","English","BachelorsDegree",2,"skeleton","specific",95,"1Task1Watch","leftAggressive",0,"stronglyDisagree",4125,0,2.3030303030303,0
118,"/home/madeleine/Projects/PLY001/data/1181514433_data2.csv",23,"male","American","English","BachelorsDegree",2,"skeleton","specific",96,"1Task1Watch","rightAggressive",0,"stronglyDisagree",4125,0,2.3030303030303,0
118,"/home/madeleine/Projects/PLY001/data/1181514433_data2.csv",23,"male","American","English","BachelorsDegree",2,"skeleton","specific",97,"1Task1Watch","leftEngaged",4,"stronglyAgree",3828,4,2.3030303030303,0
118,"/home/madeleine/Projects/PLY001/data/1181514433_data2.csv",23,"male","American","English","BachelorsDegree",2,"skeleton","specific",98,"1Task1Watch","rightEngaged",2,"neutral",3828,2,2.3030303030303,0
118,"/home/madeleine/Projects/PLY001/data/1181514433_data2.csv",23,"male","American","English","BachelorsDegree",2,"skeleton","specific",99,"1Task1Watch","leftFearful",0,"stronglyDisagree",4190,0,2.3030303030303,0
118,"/home/madeleine/Projects/PLY001/data/1181514433_data2.csv",23,"male","American","English","BachelorsDegree",2,"skeleton","specific",100,"1Task1Watch","rightFearful",3,"agree",4190,3,2.3030303030303,0
118,"/home/madeleine/Projects/PLY001/data/1181514433_data2.csv",23,"male","American","English","BachelorsDegree",2,"skeleton","specific",101,"1Task1Watch","leftSad",0,"stronglyDisagree",4126,0,2.3030303030303,0
118,"/home/madeleine/Projects/PLY001/data/1181514433_data2.csv",23,"male","American","English","BachelorsDegree",2,"skeleton","specific",102,"1Task1Watch","rightSad",1,"disagree",4126,1,2.3030303030303,0
118,"/home/madeleine/Projects/PLY001/data/1181514433_data2.csv",23,"male","American","English","BachelorsDegree",2,"skeleton","specific",103,"1Task1Watch","leftContent",2,"neutral",4105,2,2.3030303030303,0
118,"/home/madeleine/Projects/PLY001/data/1181514433_data2.csv",23,"male","American","English","BachelorsDegree",2,"skeleton","specific",104,"1Task1Watch","rightContent",1,"disagree",4105,1,2.3030303030303,0
118,"/home/madeleine/Projects/PLY001/data/1181514433_data2.csv",23,"male","American","English","BachelorsDegree",2,"skeleton","specific",105,"1Task1Watch","leftAngry",0,"stronglyDisagree",6700,0,2.3030303030303,0
118,"/home/madeleine/Projects/PLY001/data/1181514433_data2.csv",23,"male","American","English","BachelorsDegree",2,"skeleton","specific",106,"1Task1Watch","rightAngry",0,"stronglyDisagree",6700,0,2.3030303030303,0
118,"/home/madeleine/Projects/PLY001/data/1181514433_data2.csv",23,"male","American","English","BachelorsDegree",2,"skeleton","specific",107,"1Task1Watch","leftAmused",0,"stronglyDisagree",3066,0,2.3030303030303,0
118,"/home/madeleine/Projects/PLY001/data/1181514433_data2.csv",23,"male","American","English","BachelorsDegree",2,"skeleton","specific",108,"1Task1Watch","rightAmused",0,"stronglyDisagree",3066,0,2.3030303030303,0
1255,"/home/madeleine/Projects/PLY001/data/12554663422_data.csv",62,"male","American","English","Other",4,"full","specific",1,"togetherAndCrocodile","openBox",NA,NA,14607,NA,0.943722943722944,0
1255,"/home/madeleine/Projects/PLY001/data/12554663422_data.csv",62,"male","American","English","Other",4,"full","specific",2,"togetherAndCrocodile","age",NA,NA,11439,6.5,0.943722943722944,0
1255,"/home/madeleine/Projects/PLY001/data/12554663422_data.csv",62,"male","American","English","Other",4,"full","specific",3,"togetherAndCrocodile","gettingOnWell",0,"yes",4653,0,0.943722943722944,0
1255,"/home/madeleine/Projects/PLY001/data/12554663422_data.csv",62,"male","American","English","Other",4,"full","specific",4,"togetherAndCrocodile","relationshipBetweenCharacters",0,"friends",6772,0,0.943722943722944,0
1255,"/home/madeleine/Projects/PLY001/data/12554663422_data.csv",62,"male","American","English","Other",4,"full","specific",5,"togetherAndCrocodile","workingTogether",0,"yes",3915,0,0.943722943722944,0
1255,"/home/madeleine/Projects/PLY001/data/12554663422_data.csv",62,"male","American","English","Other",4,"full","specific",6,"togetherAndCrocodile","leftDominant",1,"disagree",9345,1,0.943722943722944,0
1255,"/home/madeleine/Projects/PLY001/data/12554663422_data.csv",62,"male","American","English","Other",4,"full","specific",7,"togetherAndCrocodile","rightDominant",3,"agree",9345,3,0.943722943722944,0
1255,"/home/madeleine/Projects/PLY001/data/12554663422_data.csv",62,"male","American","English","Other",4,"full","specific",8,"togetherAndCrocodile","leftCooperative",3,"agree",6857,3,0.943722943722944,0
1255,"/home/madeleine/Projects/PLY001/data/12554663422_data.csv",62,"male","American","English","Other",4,"full","specific",9,"togetherAndCrocodile","rightCooperative",3,"agree",6857,3,0.943722943722944,0
1255,"/home/madeleine/Projects/PLY001/data/12554663422_data.csv",62,"male","American","English","Other",4,"full","specific",10,"togetherAndCrocodile","leftCompetitive",2,"neutral",9197,2,0.943722943722944,0
1255,"/home/madeleine/Projects/PLY001/data/12554663422_data.csv",62,"male","American","English","Other",4,"full","specific",11,"togetherAndCrocodile","rightCompetitive",2,"neutral",9197,2,0.943722943722944,0
1255,"/home/madeleine/Projects/PLY001/data/12554663422_data.csv",62,"male","American","English","Other",4,"full","specific",12,"togetherAndCrocodile","leftFriendly",3,"agree",5262,3,0.943722943722944,0
1255,"/home/madeleine/Projects/PLY001/data/12554663422_data.csv",62,"male","American","English","Other",4,"full","specific",13,"togetherAndCrocodile","rightFriendly",3,"agree",5262,3,0.943722943722944,0
1255,"/home/madeleine/Projects/PLY001/data/12554663422_data.csv",62,"male","American","English","Other",4,"full","specific",14,"togetherAndCrocodile","leftAggressive",1,"disagree",5848,1,0.943722943722944,0
1255,"/home/madeleine/Projects/PLY001/data/12554663422_data.csv",62,"male","American","English","Other",4,"full","specific",15,"togetherAndCrocodile","rightAggressive",1,"disagree",5848,1,0.943722943722944,0
1255,"/home/madeleine/Projects/PLY001/data/12554663422_data.csv",62,"male","American","English","Other",4,"full","specific",16,"togetherAndCrocodile","leftEngaged",3,"agree",6180,3,0.943722943722944,0
1255,"/home/madeleine/Projects/PLY001/data/12554663422_data.csv",62,"male","American","English","Other",4,"full","specific",17,"togetherAndCrocodile","rightEngaged",3,"agree",6180,3,0.943722943722944,0
1255,"/home/madeleine/Projects/PLY001/data/12554663422_data.csv",62,"male","American","English","Other",4,"full","specific",18,"togetherAndCrocodile","leftFearful",1,"disagree",6749,1,0.943722943722944,0
1255,"/home/madeleine/Projects/PLY001/data/12554663422_data.csv",62,"male","American","English","Other",4,"full","specific",19,"togetherAndCrocodile","rightFearful",1,"disagree",6749,1,0.943722943722944,0
1255,"/home/madeleine/Projects/PLY001/data/12554663422_data.csv",62,"male","American","English","Other",4,"full","specific",20,"togetherAndCrocodile","leftSad",1,"disagree",6231,1,0.943722943722944,0
1255,"/home/madeleine/Projects/PLY001/data/12554663422_data.csv",62,"male","American","English","Other",4,"full","specific",21,"togetherAndCrocodile","rightSad",1,"disagree",6231,1,0.943722943722944,0
1255,"/home/madeleine/Projects/PLY001/data/12554663422_data.csv",62,"male","American","English","Other",4,"full","specific",22,"togetherAndCrocodile","leftContent",3,"agree",10830,3,0.943722943722944,0
1255,"/home/madeleine/Projects/PLY001/data/12554663422_data.csv",62,"male","American","English","Other",4,"full","specific",23,"togetherAndCrocodile","rightContent",3,"agree",10830,3,0.943722943722944,0
1255,"/home/madeleine/Projects/PLY001/data/12554663422_data.csv",62,"male","American","English","Other",4,"full","specific",24,"togetherAndCrocodile","leftAngry",1,"disagree",5787,1,0.943722943722944,0
1255,"/home/madeleine/Projects/PLY001/data/12554663422_data.csv",62,"male","American","English","Other",4,"full","specific",25,"togetherAndCrocodile","rightAngry",1,"disagree",5787,1,0.943722943722944,0
1255,"/home/madeleine/Projects/PLY001/data/12554663422_data.csv",62,"male","American","English","Other",4,"full","specific",26,"togetherAndCrocodile","leftAmused",3,"agree",6254,3,0.943722943722944,0
1255,"/home/madeleine/Projects/PLY001/data/12554663422_data.csv",62,"male","American","English","Other",4,"full","specific",27,"togetherAndCrocodile","rightAmused",3,"agree",6254,3,0.943722943722944,0
1255,"/home/madeleine/Projects/PLY001/data/12554663422_data.csv",62,"male","American","English","Other",4,"full","specific",28,"1PushesHand","openBox",NA,NA,22537,NA,0.683982683982684,0
1255,"/home/madeleine/Projects/PLY001/data/12554663422_data.csv",62,"male","American","English","Other",4,"full","specific",29,"1PushesHand","age",7,NA,9958,7,0.683982683982684,0
1255,"/home/madeleine/Projects/PLY001/data/12554663422_data.csv",62,"male","American","English","Other",4,"full","specific",30,"1PushesHand","gettingOnWell",1,"notsure",4818,1,0.683982683982684,0
1255,"/home/madeleine/Projects/PLY001/data/12554663422_data.csv",62,"male","American","English","Other",4,"full","specific",31,"1PushesHand","relationshipBetweenCharacters",1,"neutral",4235,1,0.683982683982684,0
1255,"/home/madeleine/Projects/PLY001/data/12554663422_data.csv",62,"male","American","English","Other",4,"full","specific",32,"1PushesHand","workingTogether",1,"notsure",4572,1,0.683982683982684,0
1255,"/home/madeleine/Projects/PLY001/data/12554663422_data.csv",62,"male","American","English","Other",4,"full","specific",33,"1PushesHand","leftDominant",1,"disagree",7046,1,0.683982683982684,0
1255,"/home/madeleine/Projects/PLY001/data/12554663422_data.csv",62,"male","American","English","Other",4,"full","specific",34,"1PushesHand","rightDominant",3,"agree",7046,3,0.683982683982684,0
1255,"/home/madeleine/Projects/PLY001/data/12554663422_data.csv",62,"male","American","English","Other",4,"full","specific",35,"1PushesHand","leftCooperative",2,"neutral",6359,2,0.683982683982684,0
1255,"/home/madeleine/Projects/PLY001/data/12554663422_data.csv",62,"male","American","English","Other",4,"full","specific",36,"1PushesHand","rightCooperative",2,"neutral",6359,2,0.683982683982684,0
1255,"/home/madeleine/Projects/PLY001/data/12554663422_data.csv",62,"male","American","English","Other",4,"full","specific",37,"1PushesHand","leftCompetitive",3,"agree",10451,3,0.683982683982684,0
1255,"/home/madeleine/Projects/PLY001/data/12554663422_data.csv",62,"male","American","English","Other",4,"full","specific",38,"1PushesHand","rightCompetitive",4,"stronglyAgree",10451,4,0.683982683982684,0
1255,"/home/madeleine/Projects/PLY001/data/12554663422_data.csv",62,"male","American","English","Other",4,"full","specific",39,"1PushesHand","leftFriendly",2,"neutral",7205,2,0.683982683982684,0
1255,"/home/madeleine/Projects/PLY001/data/12554663422_data.csv",62,"male","American","English","Other",4,"full","specific",40,"1PushesHand","rightFriendly",2,"neutral",7205,2,0.683982683982684,0
1255,"/home/madeleine/Projects/PLY001/data/12554663422_data.csv",62,"male","American","English","Other",4,"full","specific",41,"1PushesHand","leftAggressive",1,"disagree",12273,1,0.683982683982684,0
1255,"/home/madeleine/Projects/PLY001/data/12554663422_data.csv",62,"male","American","English","Other",4,"full","specific",42,"1PushesHand","rightAggressive",3,"agree",12273,3,0.683982683982684,0
1255,"/home/madeleine/Projects/PLY001/data/12554663422_data.csv",62,"male","American","English","Other",4,"full","specific",43,"1PushesHand","leftEngaged",3,"agree",9421,3,0.683982683982684,0
1255,"/home/madeleine/Projects/PLY001/data/12554663422_data.csv",62,"male","American","English","Other",4,"full","specific",44,"1PushesHand","rightEngaged",4,"stronglyAgree",9421,4,0.683982683982684,0
1255,"/home/madeleine/Projects/PLY001/data/12554663422_data.csv",62,"male","American","English","Other",4,"full","specific",45,"1PushesHand","leftFearful",3,"agree",8705,3,0.683982683982684,0
1255,"/home/madeleine/Projects/PLY001/data/12554663422_data.csv",62,"male","American","English","Other",4,"full","specific",46,"1PushesHand","rightFearful",1,"disagree",8705,1,0.683982683982684,0
1255,"/home/madeleine/Projects/PLY001/data/12554663422_data.csv",62,"male","American","English","Other",4,"full","specific",47,"1PushesHand","leftSad",2,"neutral",4985,2,0.683982683982684,0
1255,"/home/madeleine/Projects/PLY001/data/12554663422_data.csv",62,"male","American","English","Other",4,"full","specific",48,"1PushesHand","rightSad",2,"neutral",4985,2,0.683982683982684,0
1255,"/home/madeleine/Projects/PLY001/data/12554663422_data.csv",62,"male","American","English","Other",4,"full","specific",49,"1PushesHand","leftContent",2,"neutral",7052,2,0.683982683982684,0
1255,"/home/madeleine/Projects/PLY001/data/12554663422_data.csv",62,"male","American","English","Other",4,"full","specific",50,"1PushesHand","rightContent",2,"neutral",7052,2,0.683982683982684,0
1255,"/home/madeleine/Projects/PLY001/data/12554663422_data.csv",62,"male","American","English","Other",4,"full","specific",51,"1PushesHand","leftAngry",2,"neutral",6546,2,0.683982683982684,0
1255,"/home/madeleine/Projects/PLY001/data/12554663422_data.csv",62,"male","American","English","Other",4,"full","specific",52,"1PushesHand","rightAngry",2,"neutral",6546,2,0.683982683982684,0
1255,"/home/madeleine/Projects/PLY001/data/12554663422_data.csv",62,"male","American","English","Other",4,"full","specific",53,"1PushesHand","leftAmused",2,"neutral",6911,2,0.683982683982684,0
1255,"/home/madeleine/Projects/PLY001/data/12554663422_data.csv",62,"male","American","English","Other",4,"full","specific",54,"1PushesHand","rightAmused",2,"neutral",6911,2,0.683982683982684,0
1255,"/home/madeleine/Projects/PLY001/data/12554663422_data.csv",62,"male","American","English","Other",4,"full","specific",55,"turnTaking2","openBox",NA,NA,10983,NA,0.848484848484849,0
1255,"/home/madeleine/Projects/PLY001/data/12554663422_data.csv",62,"male","American","English","Other",4,"full","specific",56,"turnTaking2","age",8,NA,5202,8,0.848484848484849,0
1255,"/home/madeleine/Projects/PLY001/data/12554663422_data.csv",62,"male","American","English","Other",4,"full","specific",57,"turnTaking2","gettingOnWell",0,"yes",3703,0,0.848484848484849,0
1255,"/home/madeleine/Projects/PLY001/data/12554663422_data.csv",62,"male","American","English","Other",4,"full","specific",58,"turnTaking2","relationshipBetweenCharacters",0,"friends",3953,0,0.848484848484849,0
1255,"/home/madeleine/Projects/PLY001/data/12554663422_data.csv",62,"male","American","English","Other",4,"full","specific",59,"turnTaking2","workingTogether",0,"yes",3298,0,0.848484848484849,0
1255,"/home/madeleine/Projects/PLY001/data/12554663422_data.csv",62,"male","American","English","Other",4,"full","specific",60,"turnTaking2","leftDominant",3,"agree",10467,3,0.848484848484849,0
1255,"/home/madeleine/Projects/PLY001/data/12554663422_data.csv",62,"male","American","English","Other",4,"full","specific",61,"turnTaking2","rightDominant",2,"neutral",10467,2,0.848484848484849,0
1255,"/home/madeleine/Projects/PLY001/data/12554663422_data.csv",62,"male","American","English","Other",4,"full","specific",62,"turnTaking2","leftCooperative",3,"agree",4736,3,0.848484848484849,0
1255,"/home/madeleine/Projects/PLY001/data/12554663422_data.csv",62,"male","American","English","Other",4,"full","specific",63,"turnTaking2","rightCooperative",3,"agree",4736,3,0.848484848484849,0
1255,"/home/madeleine/Projects/PLY001/data/12554663422_data.csv",62,"male","American","English","Other",4,"full","specific",64,"turnTaking2","leftCompetitive",1,"disagree",5835,1,0.848484848484849,0
1255,"/home/madeleine/Projects/PLY001/data/12554663422_data.csv",62,"male","American","English","Other",4,"full","specific",65,"turnTaking2","rightCompetitive",1,"disagree",5835,1,0.848484848484849,0
1255,"/home/madeleine/Projects/PLY001/data/12554663422_data.csv",62,"male","American","English","Other",4,"full","specific",66,"turnTaking2","leftFriendly",3,"agree",4885,3,0.848484848484849,0
1255,"/home/madeleine/Projects/PLY001/data/12554663422_data.csv",62,"male","American","English","Other",4,"full","specific",67,"turnTaking2","rightFriendly",3,"agree",4885,3,0.848484848484849,0
1255,"/home/madeleine/Projects/PLY001/data/12554663422_data.csv",62,"male","American","English","Other",4,"full","specific",68,"turnTaking2","leftAggressive",1,"disagree",7132,1,0.848484848484849,0
1255,"/home/madeleine/Projects/PLY001/data/12554663422_data.csv",62,"male","American","English","Other",4,"full","specific",69,"turnTaking2","rightAggressive",1,"disagree",7132,1,0.848484848484849,0
1255,"/home/madeleine/Projects/PLY001/data/12554663422_data.csv",62,"male","American","English","Other",4,"full","specific",70,"turnTaking2","leftEngaged",3,"agree",8701,3,0.848484848484849,0
1255,"/home/madeleine/Projects/PLY001/data/12554663422_data.csv",62,"male","American","English","Other",4,"full","specific",71,"turnTaking2","rightEngaged",2,"neutral",8701,2,0.848484848484849,0
1255,"/home/madeleine/Projects/PLY001/data/12554663422_data.csv",62,"male","American","English","Other",4,"full","specific",72,"turnTaking2","leftFearful",1,"disagree",5219,1,0.848484848484849,0
1255,"/home/madeleine/Projects/PLY001/data/12554663422_data.csv",62,"male","American","English","Other",4,"full","specific",73,"turnTaking2","rightFearful",1,"disagree",5219,1,0.848484848484849,0
1255,"/home/madeleine/Projects/PLY001/data/12554663422_data.csv",62,"male","American","English","Other",4,"full","specific",74,"turnTaking2","leftSad",1,"disagree",5400,1,0.848484848484849,0
1255,"/home/madeleine/Projects/PLY001/data/12554663422_data.csv",62,"male","American","English","Other",4,"full","specific",75,"turnTaking2","rightSad",1,"disagree",5400,1,0.848484848484849,0
1255,"/home/madeleine/Projects/PLY001/data/12554663422_data.csv",62,"male","American","English","Other",4,"full","specific",76,"turnTaking2","leftContent",3,"agree",5260,3,0.848484848484849,0
1255,"/home/madeleine/Projects/PLY001/data/12554663422_data.csv",62,"male","American","English","Other",4,"full","specific",77,"turnTaking2","rightContent",3,"agree",5260,3,0.848484848484849,0
1255,"/home/madeleine/Projects/PLY001/data/12554663422_data.csv",62,"male","American","English","Other",4,"full","specific",78,"turnTaking2","leftAngry",1,"disagree",4299,1,0.848484848484849,0
1255,"/home/madeleine/Projects/PLY001/data/12554663422_data.csv",62,"male","American","English","Other",4,"full","specific",79,"turnTaking2","rightAngry",1,"disagree",4299,1,0.848484848484849,0
1255,"/home/madeleine/Projects/PLY001/data/12554663422_data.csv",62,"male","American","English","Other",4,"full","specific",80,"turnTaking2","leftAmused",2,"neutral",7140,2,0.848484848484849,0
1255,"/home/madeleine/Projects/PLY001/data/12554663422_data.csv",62,"male","American","English","Other",4,"full","specific",81,"turnTaking2","rightAmused",2,"neutral",7140,2,0.848484848484849,0
1255,"/home/madeleine/Projects/PLY001/data/12554663422_data.csv",62,"male","American","English","Other",4,"full","specific",82,"talking1PushHand","openBox",NA,NA,12253,NA,0.909090909090909,0
1255,"/home/madeleine/Projects/PLY001/data/12554663422_data.csv",62,"male","American","English","Other",4,"full","specific",83,"talking1PushHand","age",8,NA,5492,8,0.909090909090909,0
1255,"/home/madeleine/Projects/PLY001/data/12554663422_data.csv",62,"male","American","English","Other",4,"full","specific",84,"talking1PushHand","gettingOnWell",0,"yes",3037,0,0.909090909090909,0
1255,"/home/madeleine/Projects/PLY001/data/12554663422_data.csv",62,"male","American","English","Other",4,"full","specific",85,"talking1PushHand","relationshipBetweenCharacters",0,"friends",3579,0,0.909090909090909,0
1255,"/home/madeleine/Projects/PLY001/data/12554663422_data.csv",62,"male","American","English","Other",4,"full","specific",86,"talking1PushHand","workingTogether",0,"yes",2969,0,0.909090909090909,0
1255,"/home/madeleine/Projects/PLY001/data/12554663422_data.csv",62,"male","American","English","Other",4,"full","specific",87,"talking1PushHand","leftDominant",1,"disagree",7805,1,0.909090909090909,0
1255,"/home/madeleine/Projects/PLY001/data/12554663422_data.csv",62,"male","American","English","Other",4,"full","specific",88,"talking1PushHand","rightDominant",3,"agree",7805,3,0.909090909090909,0
1255,"/home/madeleine/Projects/PLY001/data/12554663422_data.csv",62,"male","American","English","Other",4,"full","specific",89,"talking1PushHand","leftCooperative",3,"agree",5455,3,0.909090909090909,0
1255,"/home/madeleine/Projects/PLY001/data/12554663422_data.csv",62,"male","American","English","Other",4,"full","specific",90,"talking1PushHand","rightCooperative",3,"agree",5455,3,0.909090909090909,0
1255,"/home/madeleine/Projects/PLY001/data/12554663422_data.csv",62,"male","American","English","Other",4,"full","specific",91,"talking1PushHand","leftCompetitive",3,"agree",6322,3,0.909090909090909,0
1255,"/home/madeleine/Projects/PLY001/data/12554663422_data.csv",62,"male","American","English","Other",4,"full","specific",92,"talking1PushHand","rightCompetitive",3,"agree",6322,3,0.909090909090909,0
1255,"/home/madeleine/Projects/PLY001/data/12554663422_data.csv",62,"male","American","English","Other",4,"full","specific",93,"talking1PushHand","leftFriendly",3,"agree",4911,3,0.909090909090909,0
1255,"/home/madeleine/Projects/PLY001/data/12554663422_data.csv",62,"male","American","English","Other",4,"full","specific",94,"talking1PushHand","rightFriendly",3,"agree",4911,3,0.909090909090909,0
1255,"/home/madeleine/Projects/PLY001/data/12554663422_data.csv",62,"male","American","English","Other",4,"full","specific",95,"talking1PushHand","leftAggressive",3,"agree",6862,3,0.909090909090909,0
1255,"/home/madeleine/Projects/PLY001/data/12554663422_data.csv",62,"male","American","English","Other",4,"full","specific",96,"talking1PushHand","rightAggressive",3,"agree",6862,3,0.909090909090909,0
1255,"/home/madeleine/Projects/PLY001/data/12554663422_data.csv",62,"male","American","English","Other",4,"full","specific",97,"talking1PushHand","leftEngaged",3,"agree",5020,3,0.909090909090909,0
1255,"/home/madeleine/Projects/PLY001/data/12554663422_data.csv",62,"male","American","English","Other",4,"full","specific",98,"talking1PushHand","rightEngaged",3,"agree",5020,3,0.909090909090909,0
1255,"/home/madeleine/Projects/PLY001/data/12554663422_data.csv",62,"male","American","English","Other",4,"full","specific",99,"talking1PushHand","leftFearful",1,"disagree",4556,1,0.909090909090909,0
1255,"/home/madeleine/Projects/PLY001/data/12554663422_data.csv",62,"male","American","English","Other",4,"full","specific",100,"talking1PushHand","rightFearful",1,"disagree",4556,1,0.909090909090909,0
1255,"/home/madeleine/Projects/PLY001/data/12554663422_data.csv",62,"male","American","English","Other",4,"full","specific",101,"talking1PushHand","leftSad",1,"disagree",5234,1,0.909090909090909,0
1255,"/home/madeleine/Projects/PLY001/data/12554663422_data.csv",62,"male","American","English","Other",4,"full","specific",102,"talking1PushHand","rightSad",1,"disagree",5234,1,0.909090909090909,0
1255,"/home/madeleine/Projects/PLY001/data/12554663422_data.csv",62,"male","American","English","Other",4,"full","specific",103,"talking1PushHand","leftContent",3,"agree",4971,3,0.909090909090909,0
1255,"/home/madeleine/Projects/PLY001/data/12554663422_data.csv",62,"male","American","English","Other",4,"full","specific",104,"talking1PushHand","rightContent",3,"agree",4971,3,0.909090909090909,0
1255,"/home/madeleine/Projects/PLY001/data/12554663422_data.csv",62,"male","American","English","Other",4,"full","specific",105,"talking1PushHand","leftAngry",1,"disagree",4451,1,0.909090909090909,0
1255,"/home/madeleine/Projects/PLY001/data/12554663422_data.csv",62,"male","American","English","Other",4,"full","specific",106,"talking1PushHand","rightAngry",1,"disagree",4451,1,0.909090909090909,0
1255,"/home/madeleine/Projects/PLY001/data/12554663422_data.csv",62,"male","American","English","Other",4,"full","specific",107,"talking1PushHand","leftAmused",3,"agree",7876,3,0.909090909090909,0
1255,"/home/madeleine/Projects/PLY001/data/12554663422_data.csv",62,"male","American","English","Other",4,"full","specific",108,"talking1PushHand","rightAmused",3,"agree",7876,3,0.909090909090909,0
1315,"/home/madeleine/Projects/PLY001/data/13151472490_data.csv",24,"male","Indian","Other","BachelorsDegree",4,"full","specific",1,"1Laugh1PushAway","openBox",NA,NA,127473,NA,2.8625,0
1315,"/home/madeleine/Projects/PLY001/data/13151472490_data.csv",24,"male","Indian","Other","BachelorsDegree",4,"full","specific",2,"1Laugh1PushAway","age",10,NA,8836,10,2.8625,0
1315,"/home/madeleine/Projects/PLY001/data/13151472490_data.csv",24,"male","Indian","Other","BachelorsDegree",4,"full","specific",3,"1Laugh1PushAway","gettingOnWell",1,"notsure",12373,1,2.8625,0
1315,"/home/madeleine/Projects/PLY001/data/13151472490_data.csv",24,"male","Indian","Other","BachelorsDegree",4,"full","specific",4,"1Laugh1PushAway","relationshipBetweenCharacters",0,"friends",5044,0,2.8625,0
1315,"/home/madeleine/Projects/PLY001/data/13151472490_data.csv",24,"male","Indian","Other","BachelorsDegree",4,"full","specific",5,"1Laugh1PushAway","workingTogether",0,"yes",4788,0,2.8625,0
1315,"/home/madeleine/Projects/PLY001/data/13151472490_data.csv",24,"male","Indian","Other","BachelorsDegree",4,"full","specific",6,"1Laugh1PushAway","leftDominant",0,"stronglyDisagree",11541,0,2.8625,0
1315,"/home/madeleine/Projects/PLY001/data/13151472490_data.csv",24,"male","Indian","Other","BachelorsDegree",4,"full","specific",7,"1Laugh1PushAway","rightDominant",4,"stronglyAgree",11541,4,2.8625,0
1315,"/home/madeleine/Projects/PLY001/data/13151472490_data.csv",24,"male","Indian","Other","BachelorsDegree",4,"full","specific",8,"1Laugh1PushAway","leftCooperative",NA,NA,49,NA,2.8625,0
1315,"/home/madeleine/Projects/PLY001/data/13151472490_data.csv",24,"male","Indian","Other","BachelorsDegree",4,"full","specific",9,"1Laugh1PushAway","rightCooperative",NA,NA,49,NA,2.8625,0
1315,"/home/madeleine/Projects/PLY001/data/13151472490_data.csv",24,"male","Indian","Other","BachelorsDegree",4,"full","specific",10,"1Laugh1PushAway","leftCompetitive",0,"stronglyDisagree",8111,0,2.8625,0
1315,"/home/madeleine/Projects/PLY001/data/13151472490_data.csv",24,"male","Indian","Other","BachelorsDegree",4,"full","specific",11,"1Laugh1PushAway","rightCompetitive",4,"stronglyAgree",8111,4,2.8625,0
1315,"/home/madeleine/Projects/PLY001/data/13151472490_data.csv",24,"male","Indian","Other","BachelorsDegree",4,"full","specific",12,"1Laugh1PushAway","leftFriendly",4,"stronglyAgree",6019,4,2.8625,0
1315,"/home/madeleine/Projects/PLY001/data/13151472490_data.csv",24,"male","Indian","Other","BachelorsDegree",4,"full","specific",13,"1Laugh1PushAway","rightFriendly",0,"stronglyDisagree",6019,0,2.8625,0
1315,"/home/madeleine/Projects/PLY001/data/13151472490_data.csv",24,"male","Indian","Other","BachelorsDegree",4,"full","specific",14,"1Laugh1PushAway","leftAggressive",0,"stronglyDisagree",5427,0,2.8625,0
1315,"/home/madeleine/Projects/PLY001/data/13151472490_data.csv",24,"male","Indian","Other","BachelorsDegree",4,"full","specific",15,"1Laugh1PushAway","rightAggressive",4,"stronglyAgree",5427,4,2.8625,0
1315,"/home/madeleine/Projects/PLY001/data/13151472490_data.csv",24,"male","Indian","Other","BachelorsDegree",4,"full","specific",16,"1Laugh1PushAway","leftEngaged",3,"agree",12035,3,2.8625,0
1315,"/home/madeleine/Projects/PLY001/data/13151472490_data.csv",24,"male","Indian","Other","BachelorsDegree",4,"full","specific",17,"1Laugh1PushAway","rightEngaged",1,"disagree",12035,1,2.8625,0
1315,"/home/madeleine/Projects/PLY001/data/13151472490_data.csv",24,"male","Indian","Other","BachelorsDegree",4,"full","specific",18,"1Laugh1PushAway","leftFearful",3,"agree",8939,3,2.8625,0
1315,"/home/madeleine/Projects/PLY001/data/13151472490_data.csv",24,"male","Indian","Other","BachelorsDegree",4,"full","specific",19,"1Laugh1PushAway","rightFearful",0,"stronglyDisagree",8939,0,2.8625,0
1315,"/home/madeleine/Projects/PLY001/data/13151472490_data.csv",24,"male","Indian","Other","BachelorsDegree",4,"full","specific",20,"1Laugh1PushAway","leftSad",NA,NA,43,NA,2.8625,0
1315,"/home/madeleine/Projects/PLY001/data/13151472490_data.csv",24,"male","Indian","Other","BachelorsDegree",4,"full","specific",21,"1Laugh1PushAway","rightSad",NA,NA,43,NA,2.8625,0
1315,"/home/madeleine/Projects/PLY001/data/13151472490_data.csv",24,"male","Indian","Other","BachelorsDegree",4,"full","specific",22,"1Laugh1PushAway","leftContent",3,"agree",5808,3,2.8625,0
1315,"/home/madeleine/Projects/PLY001/data/13151472490_data.csv",24,"male","Indian","Other","BachelorsDegree",4,"full","specific",23,"1Laugh1PushAway","rightContent",1,"disagree",5808,1,2.8625,0
1315,"/home/madeleine/Projects/PLY001/data/13151472490_data.csv",24,"male","Indian","Other","BachelorsDegree",4,"full","specific",24,"1Laugh1PushAway","leftAngry",NA,NA,68,NA,2.8625,0
1315,"/home/madeleine/Projects/PLY001/data/13151472490_data.csv",24,"male","Indian","Other","BachelorsDegree",4,"full","specific",25,"1Laugh1PushAway","rightAngry",NA,NA,68,NA,2.8625,0
1315,"/home/madeleine/Projects/PLY001/data/13151472490_data.csv",24,"male","Indian","Other","BachelorsDegree",4,"full","specific",26,"1Laugh1PushAway","leftAmused",3,"agree",12980,3,2.8625,0
1315,"/home/madeleine/Projects/PLY001/data/13151472490_data.csv",24,"male","Indian","Other","BachelorsDegree",4,"full","specific",27,"1Laugh1PushAway","rightAmused",1,"disagree",12980,1,2.8625,0
1315,"/home/madeleine/Projects/PLY001/data/13151472490_data.csv",24,"male","Indian","Other","BachelorsDegree",4,"full","specific",28,"1PushBothExcited","openBox",NA,NA,94639,NA,2.91830065359477,0
1315,"/home/madeleine/Projects/PLY001/data/13151472490_data.csv",24,"male","Indian","Other","BachelorsDegree",4,"full","specific",29,"1PushBothExcited","age",8,NA,6462,8,2.91830065359477,0
1315,"/home/madeleine/Projects/PLY001/data/13151472490_data.csv",24,"male","Indian","Other","BachelorsDegree",4,"full","specific",30,"1PushBothExcited","gettingOnWell",2,"no",7442,2,2.91830065359477,0
1315,"/home/madeleine/Projects/PLY001/data/13151472490_data.csv",24,"male","Indian","Other","BachelorsDegree",4,"full","specific",31,"1PushBothExcited","relationshipBetweenCharacters",0,"friends",6630,0,2.91830065359477,0
1315,"/home/madeleine/Projects/PLY001/data/13151472490_data.csv",24,"male","Indian","Other","BachelorsDegree",4,"full","specific",32,"1PushBothExcited","workingTogether",2,"no",4525,2,2.91830065359477,0
1315,"/home/madeleine/Projects/PLY001/data/13151472490_data.csv",24,"male","Indian","Other","BachelorsDegree",4,"full","specific",33,"1PushBothExcited","leftDominant",0,"stronglyDisagree",6152,0,2.91830065359477,0
1315,"/home/madeleine/Projects/PLY001/data/13151472490_data.csv",24,"male","Indian","Other","BachelorsDegree",4,"full","specific",34,"1PushBothExcited","rightDominant",4,"stronglyAgree",6152,4,2.91830065359477,0
1315,"/home/madeleine/Projects/PLY001/data/13151472490_data.csv",24,"male","Indian","Other","BachelorsDegree",4,"full","specific",35,"1PushBothExcited","leftCooperative",4,"stronglyAgree",8812,4,2.91830065359477,0
1315,"/home/madeleine/Projects/PLY001/data/13151472490_data.csv",24,"male","Indian","Other","BachelorsDegree",4,"full","specific",36,"1PushBothExcited","rightCooperative",0,"stronglyDisagree",8812,0,2.91830065359477,0
1315,"/home/madeleine/Projects/PLY001/data/13151472490_data.csv",24,"male","Indian","Other","BachelorsDegree",4,"full","specific",37,"1PushBothExcited","leftCompetitive",0,"stronglyDisagree",5210,0,2.91830065359477,0
1315,"/home/madeleine/Projects/PLY001/data/13151472490_data.csv",24,"male","Indian","Other","BachelorsDegree",4,"full","specific",38,"1PushBothExcited","rightCompetitive",4,"stronglyAgree",5210,4,2.91830065359477,0
1315,"/home/madeleine/Projects/PLY001/data/13151472490_data.csv",24,"male","Indian","Other","BachelorsDegree",4,"full","specific",39,"1PushBothExcited","leftFriendly",4,"stronglyAgree",5113,4,2.91830065359477,0
1315,"/home/madeleine/Projects/PLY001/data/13151472490_data.csv",24,"male","Indian","Other","BachelorsDegree",4,"full","specific",40,"1PushBothExcited","rightFriendly",0,"stronglyDisagree",5113,0,2.91830065359477,0
1315,"/home/madeleine/Projects/PLY001/data/13151472490_data.csv",24,"male","Indian","Other","BachelorsDegree",4,"full","specific",41,"1PushBothExcited","leftAggressive",0,"stronglyDisagree",5660,0,2.91830065359477,0
1315,"/home/madeleine/Projects/PLY001/data/13151472490_data.csv",24,"male","Indian","Other","BachelorsDegree",4,"full","specific",42,"1PushBothExcited","rightAggressive",4,"stronglyAgree",5660,4,2.91830065359477,0
1315,"/home/madeleine/Projects/PLY001/data/13151472490_data.csv",24,"male","Indian","Other","BachelorsDegree",4,"full","specific",43,"1PushBothExcited","leftEngaged",3,"agree",4707,3,2.91830065359477,0
1315,"/home/madeleine/Projects/PLY001/data/13151472490_data.csv",24,"male","Indian","Other","BachelorsDegree",4,"full","specific",44,"1PushBothExcited","rightEngaged",1,"disagree",4707,1,2.91830065359477,0
1315,"/home/madeleine/Projects/PLY001/data/13151472490_data.csv",24,"male","Indian","Other","BachelorsDegree",4,"full","specific",45,"1PushBothExcited","leftFearful",NA,NA,12,NA,2.91830065359477,0
1315,"/home/madeleine/Projects/PLY001/data/13151472490_data.csv",24,"male","Indian","Other","BachelorsDegree",4,"full","specific",46,"1PushBothExcited","rightFearful",NA,NA,12,NA,2.91830065359477,0
1315,"/home/madeleine/Projects/PLY001/data/13151472490_data.csv",24,"male","Indian","Other","BachelorsDegree",4,"full","specific",47,"1PushBothExcited","leftSad",0,"stronglyDisagree",10767,0,2.91830065359477,0
1315,"/home/madeleine/Projects/PLY001/data/13151472490_data.csv",24,"male","Indian","Other","BachelorsDegree",4,"full","specific",48,"1PushBothExcited","rightSad",2,"neutral",10767,2,2.91830065359477,0
1315,"/home/madeleine/Projects/PLY001/data/13151472490_data.csv",24,"male","Indian","Other","BachelorsDegree",4,"full","specific",49,"1PushBothExcited","leftContent",NA,NA,56,NA,2.91830065359477,0
1315,"/home/madeleine/Projects/PLY001/data/13151472490_data.csv",24,"male","Indian","Other","BachelorsDegree",4,"full","specific",50,"1PushBothExcited","rightContent",NA,NA,56,NA,2.91830065359477,0
1315,"/home/madeleine/Projects/PLY001/data/13151472490_data.csv",24,"male","Indian","Other","BachelorsDegree",4,"full","specific",51,"1PushBothExcited","leftAngry",0,"stronglyDisagree",7526,0,2.91830065359477,0
1315,"/home/madeleine/Projects/PLY001/data/13151472490_data.csv",24,"male","Indian","Other","BachelorsDegree",4,"full","specific",52,"1PushBothExcited","rightAngry",2,"neutral",7526,2,2.91830065359477,0
1315,"/home/madeleine/Projects/PLY001/data/13151472490_data.csv",24,"male","Indian","Other","BachelorsDegree",4,"full","specific",53,"1PushBothExcited","leftAmused",2,"neutral",4098,2,2.91830065359477,0
1315,"/home/madeleine/Projects/PLY001/data/13151472490_data.csv",24,"male","Indian","Other","BachelorsDegree",4,"full","specific",54,"1PushBothExcited","rightAmused",1,"disagree",4098,1,2.91830065359477,0
1315,"/home/madeleine/Projects/PLY001/data/13151472490_data.csv",24,"male","Indian","Other","BachelorsDegree",4,"full","specific",55,"1Laughing","openBox",NA,NA,32148,NA,2.47105263157895,0
1315,"/home/madeleine/Projects/PLY001/data/13151472490_data.csv",24,"male","Indian","Other","BachelorsDegree",4,"full","specific",56,"1Laughing","age",9,NA,6700,9,2.47105263157895,0
1315,"/home/madeleine/Projects/PLY001/data/13151472490_data.csv",24,"male","Indian","Other","BachelorsDegree",4,"full","specific",57,"1Laughing","gettingOnWell",0,"yes",5843,0,2.47105263157895,0
1315,"/home/madeleine/Projects/PLY001/data/13151472490_data.csv",24,"male","Indian","Other","BachelorsDegree",4,"full","specific",58,"1Laughing","relationshipBetweenCharacters",NA,NA,41,NA,2.47105263157895,0
1315,"/home/madeleine/Projects/PLY001/data/13151472490_data.csv",24,"male","Indian","Other","BachelorsDegree",4,"full","specific",59,"1Laughing","workingTogether",0,"yes",2862,0,2.47105263157895,0
1315,"/home/madeleine/Projects/PLY001/data/13151472490_data.csv",24,"male","Indian","Other","BachelorsDegree",4,"full","specific",60,"1Laughing","leftDominant",0,"stronglyDisagree",5626,0,2.47105263157895,0
1315,"/home/madeleine/Projects/PLY001/data/13151472490_data.csv",24,"male","Indian","Other","BachelorsDegree",4,"full","specific",61,"1Laughing","rightDominant",0,"stronglyDisagree",5626,0,2.47105263157895,0
1315,"/home/madeleine/Projects/PLY001/data/13151472490_data.csv",24,"male","Indian","Other","BachelorsDegree",4,"full","specific",62,"1Laughing","leftCooperative",4,"stronglyAgree",4416,4,2.47105263157895,0
1315,"/home/madeleine/Projects/PLY001/data/13151472490_data.csv",24,"male","Indian","Other","BachelorsDegree",4,"full","specific",63,"1Laughing","rightCooperative",4,"stronglyAgree",4416,4,2.47105263157895,0
1315,"/home/madeleine/Projects/PLY001/data/13151472490_data.csv",24,"male","Indian","Other","BachelorsDegree",4,"full","specific",64,"1Laughing","leftCompetitive",1,"disagree",4913,1,2.47105263157895,0
1315,"/home/madeleine/Projects/PLY001/data/13151472490_data.csv",24,"male","Indian","Other","BachelorsDegree",4,"full","specific",65,"1Laughing","rightCompetitive",1,"disagree",4913,1,2.47105263157895,0
1315,"/home/madeleine/Projects/PLY001/data/13151472490_data.csv",24,"male","Indian","Other","BachelorsDegree",4,"full","specific",66,"1Laughing","leftFriendly",4,"stronglyAgree",3755,4,2.47105263157895,0
1315,"/home/madeleine/Projects/PLY001/data/13151472490_data.csv",24,"male","Indian","Other","BachelorsDegree",4,"full","specific",67,"1Laughing","rightFriendly",4,"stronglyAgree",3755,4,2.47105263157895,0
1315,"/home/madeleine/Projects/PLY001/data/13151472490_data.csv",24,"male","Indian","Other","BachelorsDegree",4,"full","specific",68,"1Laughing","leftAggressive",0,"stronglyDisagree",4990,0,2.47105263157895,0
1315,"/home/madeleine/Projects/PLY001/data/13151472490_data.csv",24,"male","Indian","Other","BachelorsDegree",4,"full","specific",69,"1Laughing","rightAggressive",0,"stronglyDisagree",4990,0,2.47105263157895,0
1315,"/home/madeleine/Projects/PLY001/data/13151472490_data.csv",24,"male","Indian","Other","BachelorsDegree",4,"full","specific",70,"1Laughing","leftEngaged",NA,NA,56,NA,2.47105263157895,0
1315,"/home/madeleine/Projects/PLY001/data/13151472490_data.csv",24,"male","Indian","Other","BachelorsDegree",4,"full","specific",71,"1Laughing","rightEngaged",NA,NA,56,NA,2.47105263157895,0
1315,"/home/madeleine/Projects/PLY001/data/13151472490_data.csv",24,"male","Indian","Other","BachelorsDegree",4,"full","specific",72,"1Laughing","leftFearful",0,"stronglyDisagree",3690,0,2.47105263157895,0
1315,"/home/madeleine/Projects/PLY001/data/13151472490_data.csv",24,"male","Indian","Other","BachelorsDegree",4,"full","specific",73,"1Laughing","rightFearful",0,"stronglyDisagree",3690,0,2.47105263157895,0
1315,"/home/madeleine/Projects/PLY001/data/13151472490_data.csv",24,"male","Indian","Other","BachelorsDegree",4,"full","specific",74,"1Laughing","leftSad",0,"stronglyDisagree",3809,0,2.47105263157895,0
1315,"/home/madeleine/Projects/PLY001/data/13151472490_data.csv",24,"male","Indian","Other","BachelorsDegree",4,"full","specific",75,"1Laughing","rightSad",0,"stronglyDisagree",3809,0,2.47105263157895,0
1315,"/home/madeleine/Projects/PLY001/data/13151472490_data.csv",24,"male","Indian","Other","BachelorsDegree",4,"full","specific",76,"1Laughing","leftContent",1,"disagree",4057,1,2.47105263157895,0
1315,"/home/madeleine/Projects/PLY001/data/13151472490_data.csv",24,"male","Indian","Other","BachelorsDegree",4,"full","specific",77,"1Laughing","rightContent",1,"disagree",4057,1,2.47105263157895,0
1315,"/home/madeleine/Projects/PLY001/data/13151472490_data.csv",24,"male","Indian","Other","BachelorsDegree",4,"full","specific",78,"1Laughing","leftAngry",0,"stronglyDisagree",4622,0,2.47105263157895,0
1315,"/home/madeleine/Projects/PLY001/data/13151472490_data.csv",24,"male","Indian","Other","BachelorsDegree",4,"full","specific",79,"1Laughing","rightAngry",0,"stronglyDisagree",4622,0,2.47105263157895,0
1315,"/home/madeleine/Projects/PLY001/data/13151472490_data.csv",24,"male","Indian","Other","BachelorsDegree",4,"full","specific",80,"1Laughing","leftAmused",1,"disagree",2738,1,2.47105263157895,0
1315,"/home/madeleine/Projects/PLY001/data/13151472490_data.csv",24,"male","Indian","Other","BachelorsDegree",4,"full","specific",81,"1Laughing","rightAmused",0,"stronglyDisagree",2738,0,2.47105263157895,0
1315,"/home/madeleine/Projects/PLY001/data/13151472490_data.csv",24,"male","Indian","Other","BachelorsDegree",4,"full","specific",82,"talkAndIndependent","openBox",NA,NA,47453,NA,1.53684210526316,0
1315,"/home/madeleine/Projects/PLY001/data/13151472490_data.csv",24,"male","Indian","Other","BachelorsDegree",4,"full","specific",83,"talkAndIndependent","age",10,NA,6091,10,1.53684210526316,0
1315,"/home/madeleine/Projects/PLY001/data/13151472490_data.csv",24,"male","Indian","Other","BachelorsDegree",4,"full","specific",84,"talkAndIndependent","gettingOnWell",0,"yes",2744,0,1.53684210526316,0
1315,"/home/madeleine/Projects/PLY001/data/13151472490_data.csv",24,"male","Indian","Other","BachelorsDegree",4,"full","specific",85,"talkAndIndependent","relationshipBetweenCharacters",0,"friends",1850,0,1.53684210526316,0
1315,"/home/madeleine/Projects/PLY001/data/13151472490_data.csv",24,"male","Indian","Other","BachelorsDegree",4,"full","specific",86,"talkAndIndependent","workingTogether",0,"yes",4594,0,1.53684210526316,0
1315,"/home/madeleine/Projects/PLY001/data/13151472490_data.csv",24,"male","Indian","Other","BachelorsDegree",4,"full","specific",87,"talkAndIndependent","leftDominant",0,"stronglyDisagree",5575,0,1.53684210526316,0
1315,"/home/madeleine/Projects/PLY001/data/13151472490_data.csv",24,"male","Indian","Other","BachelorsDegree",4,"full","specific",88,"talkAndIndependent","rightDominant",3,"agree",5575,3,1.53684210526316,0
1315,"/home/madeleine/Projects/PLY001/data/13151472490_data.csv",24,"male","Indian","Other","BachelorsDegree",4,"full","specific",89,"talkAndIndependent","leftCooperative",3,"agree",6560,3,1.53684210526316,0
1315,"/home/madeleine/Projects/PLY001/data/13151472490_data.csv",24,"male","Indian","Other","BachelorsDegree",4,"full","specific",90,"talkAndIndependent","rightCooperative",3,"agree",6560,3,1.53684210526316,0
1315,"/home/madeleine/Projects/PLY001/data/13151472490_data.csv",24,"male","Indian","Other","BachelorsDegree",4,"full","specific",91,"talkAndIndependent","leftCompetitive",2,"neutral",5485,2,1.53684210526316,0
1315,"/home/madeleine/Projects/PLY001/data/13151472490_data.csv",24,"male","Indian","Other","BachelorsDegree",4,"full","specific",92,"talkAndIndependent","rightCompetitive",3,"agree",5485,3,1.53684210526316,0
1315,"/home/madeleine/Projects/PLY001/data/13151472490_data.csv",24,"male","Indian","Other","BachelorsDegree",4,"full","specific",93,"talkAndIndependent","leftFriendly",3,"agree",3650,3,1.53684210526316,0
1315,"/home/madeleine/Projects/PLY001/data/13151472490_data.csv",24,"male","Indian","Other","BachelorsDegree",4,"full","specific",94,"talkAndIndependent","rightFriendly",3,"agree",3650,3,1.53684210526316,0
1315,"/home/madeleine/Projects/PLY001/data/13151472490_data.csv",24,"male","Indian","Other","BachelorsDegree",4,"full","specific",95,"talkAndIndependent","leftAggressive",NA,NA,39,NA,1.53684210526316,0
1315,"/home/madeleine/Projects/PLY001/data/13151472490_data.csv",24,"male","Indian","Other","BachelorsDegree",4,"full","specific",96,"talkAndIndependent","rightAggressive",NA,NA,39,NA,1.53684210526316,0
1315,"/home/madeleine/Projects/PLY001/data/13151472490_data.csv",24,"male","Indian","Other","BachelorsDegree",4,"full","specific",97,"talkAndIndependent","leftEngaged",2,"neutral",5044,2,1.53684210526316,0
1315,"/home/madeleine/Projects/PLY001/data/13151472490_data.csv",24,"male","Indian","Other","BachelorsDegree",4,"full","specific",98,"talkAndIndependent","rightEngaged",4,"stronglyAgree",5044,4,1.53684210526316,0
1315,"/home/madeleine/Projects/PLY001/data/13151472490_data.csv",24,"male","Indian","Other","BachelorsDegree",4,"full","specific",99,"talkAndIndependent","leftFearful",1,"disagree",5356,1,1.53684210526316,0
1315,"/home/madeleine/Projects/PLY001/data/13151472490_data.csv",24,"male","Indian","Other","BachelorsDegree",4,"full","specific",100,"talkAndIndependent","rightFearful",1,"disagree",5356,1,1.53684210526316,0
1315,"/home/madeleine/Projects/PLY001/data/13151472490_data.csv",24,"male","Indian","Other","BachelorsDegree",4,"full","specific",101,"talkAndIndependent","leftSad",0,"stronglyDisagree",9413,0,1.53684210526316,0
1315,"/home/madeleine/Projects/PLY001/data/13151472490_data.csv",24,"male","Indian","Other","BachelorsDegree",4,"full","specific",102,"talkAndIndependent","rightSad",2,"neutral",9413,2,1.53684210526316,0
1315,"/home/madeleine/Projects/PLY001/data/13151472490_data.csv",24,"male","Indian","Other","BachelorsDegree",4,"full","specific",103,"talkAndIndependent","leftContent",2,"neutral",4266,2,1.53684210526316,0
1315,"/home/madeleine/Projects/PLY001/data/13151472490_data.csv",24,"male","Indian","Other","BachelorsDegree",4,"full","specific",104,"talkAndIndependent","rightContent",1,"disagree",4266,1,1.53684210526316,0
1315,"/home/madeleine/Projects/PLY001/data/13151472490_data.csv",24,"male","Indian","Other","BachelorsDegree",4,"full","specific",105,"talkAndIndependent","leftAngry",0,"stronglyDisagree",5280,0,1.53684210526316,0
1315,"/home/madeleine/Projects/PLY001/data/13151472490_data.csv",24,"male","Indian","Other","BachelorsDegree",4,"full","specific",106,"talkAndIndependent","rightAngry",0,"stronglyDisagree",5280,0,1.53684210526316,0
1315,"/home/madeleine/Projects/PLY001/data/13151472490_data.csv",24,"male","Indian","Other","BachelorsDegree",4,"full","specific",107,"talkAndIndependent","leftAmused",1,"disagree",3638,1,1.53684210526316,0
1315,"/home/madeleine/Projects/PLY001/data/13151472490_data.csv",24,"male","Indian","Other","BachelorsDegree",4,"full","specific",108,"talkAndIndependent","rightAmused",2,"neutral",3638,2,1.53684210526316,0
1383,"/home/madeleine/Projects/PLY001/data/13838595462_data.csv",24,"female","Indian","English","BachelorsDegree",4,"full","specific",1,"bothDistressedTable","openBox",NA,NA,68672,NA,0.909090909090909,0
1383,"/home/madeleine/Projects/PLY001/data/13838595462_data.csv",24,"female","Indian","English","BachelorsDegree",4,"full","specific",2,"bothDistressedTable","age",8,NA,7414,8,0.909090909090909,0
1383,"/home/madeleine/Projects/PLY001/data/13838595462_data.csv",24,"female","Indian","English","BachelorsDegree",4,"full","specific",3,"bothDistressedTable","gettingOnWell",0,"yes",8734,0,0.909090909090909,0
1383,"/home/madeleine/Projects/PLY001/data/13838595462_data.csv",24,"female","Indian","English","BachelorsDegree",4,"full","specific",4,"bothDistressedTable","relationshipBetweenCharacters",1,"neutral",11230,1,0.909090909090909,0
1383,"/home/madeleine/Projects/PLY001/data/13838595462_data.csv",24,"female","Indian","English","BachelorsDegree",4,"full","specific",5,"bothDistressedTable","workingTogether",0,"yes",3783,0,0.909090909090909,0
1383,"/home/madeleine/Projects/PLY001/data/13838595462_data.csv",24,"female","Indian","English","BachelorsDegree",4,"full","specific",6,"bothDistressedTable","leftDominant",3,"agree",11094,3,0.909090909090909,0
1383,"/home/madeleine/Projects/PLY001/data/13838595462_data.csv",24,"female","Indian","English","BachelorsDegree",4,"full","specific",7,"bothDistressedTable","rightDominant",1,"disagree",11094,1,0.909090909090909,0
1383,"/home/madeleine/Projects/PLY001/data/13838595462_data.csv",24,"female","Indian","English","BachelorsDegree",4,"full","specific",8,"bothDistressedTable","leftCooperative",3,"agree",3583,3,0.909090909090909,0
1383,"/home/madeleine/Projects/PLY001/data/13838595462_data.csv",24,"female","Indian","English","BachelorsDegree",4,"full","specific",9,"bothDistressedTable","rightCooperative",1,"disagree",3583,1,0.909090909090909,0
1383,"/home/madeleine/Projects/PLY001/data/13838595462_data.csv",24,"female","Indian","English","BachelorsDegree",4,"full","specific",10,"bothDistressedTable","leftCompetitive",3,"agree",4158,3,0.909090909090909,0
1383,"/home/madeleine/Projects/PLY001/data/13838595462_data.csv",24,"female","Indian","English","BachelorsDegree",4,"full","specific",11,"bothDistressedTable","rightCompetitive",3,"agree",4158,3,0.909090909090909,0
1383,"/home/madeleine/Projects/PLY001/data/13838595462_data.csv",24,"female","Indian","English","BachelorsDegree",4,"full","specific",12,"bothDistressedTable","leftFriendly",4,"stronglyAgree",3592,4,0.909090909090909,0
1383,"/home/madeleine/Projects/PLY001/data/13838595462_data.csv",24,"female","Indian","English","BachelorsDegree",4,"full","specific",13,"bothDistressedTable","rightFriendly",1,"disagree",3592,1,0.909090909090909,0
1383,"/home/madeleine/Projects/PLY001/data/13838595462_data.csv",24,"female","Indian","English","BachelorsDegree",4,"full","specific",14,"bothDistressedTable","leftAggressive",3,"agree",2695,3,0.909090909090909,0
1383,"/home/madeleine/Projects/PLY001/data/13838595462_data.csv",24,"female","Indian","English","BachelorsDegree",4,"full","specific",15,"bothDistressedTable","rightAggressive",2,"neutral",2695,2,0.909090909090909,0
1383,"/home/madeleine/Projects/PLY001/data/13838595462_data.csv",24,"female","Indian","English","BachelorsDegree",4,"full","specific",16,"bothDistressedTable","leftEngaged",4,"stronglyAgree",4382,4,0.909090909090909,0
1383,"/home/madeleine/Projects/PLY001/data/13838595462_data.csv",24,"female","Indian","English","BachelorsDegree",4,"full","specific",17,"bothDistressedTable","rightEngaged",3,"agree",4382,3,0.909090909090909,0
1383,"/home/madeleine/Projects/PLY001/data/13838595462_data.csv",24,"female","Indian","English","BachelorsDegree",4,"full","specific",18,"bothDistressedTable","leftFearful",3,"agree",3588,3,0.909090909090909,0
1383,"/home/madeleine/Projects/PLY001/data/13838595462_data.csv",24,"female","Indian","English","BachelorsDegree",4,"full","specific",19,"bothDistressedTable","rightFearful",1,"disagree",3588,1,0.909090909090909,0
1383,"/home/madeleine/Projects/PLY001/data/13838595462_data.csv",24,"female","Indian","English","BachelorsDegree",4,"full","specific",20,"bothDistressedTable","leftSad",3,"agree",2830,3,0.909090909090909,0
1383,"/home/madeleine/Projects/PLY001/data/13838595462_data.csv",24,"female","Indian","English","BachelorsDegree",4,"full","specific",21,"bothDistressedTable","rightSad",2,"neutral",2830,2,0.909090909090909,0
1383,"/home/madeleine/Projects/PLY001/data/13838595462_data.csv",24,"female","Indian","English","BachelorsDegree",4,"full","specific",22,"bothDistressedTable","leftContent",3,"agree",2527,3,0.909090909090909,0
1383,"/home/madeleine/Projects/PLY001/data/13838595462_data.csv",24,"female","Indian","English","BachelorsDegree",4,"full","specific",23,"bothDistressedTable","rightContent",2,"neutral",2527,2,0.909090909090909,0
1383,"/home/madeleine/Projects/PLY001/data/13838595462_data.csv",24,"female","Indian","English","BachelorsDegree",4,"full","specific",24,"bothDistressedTable","leftAngry",3,"agree",2605,3,0.909090909090909,0
1383,"/home/madeleine/Projects/PLY001/data/13838595462_data.csv",24,"female","Indian","English","BachelorsDegree",4,"full","specific",25,"bothDistressedTable","rightAngry",3,"agree",2605,3,0.909090909090909,0
1383,"/home/madeleine/Projects/PLY001/data/13838595462_data.csv",24,"female","Indian","English","BachelorsDegree",4,"full","specific",26,"bothDistressedTable","leftAmused",4,"stronglyAgree",2710,4,0.909090909090909,0
1383,"/home/madeleine/Projects/PLY001/data/13838595462_data.csv",24,"female","Indian","English","BachelorsDegree",4,"full","specific",27,"bothDistressedTable","rightAmused",3,"agree",2710,3,0.909090909090909,0
1383,"/home/madeleine/Projects/PLY001/data/13838595462_data.csv",24,"female","Indian","English","BachelorsDegree",4,"full","specific",28,"discussAndTogether","openBox",NA,NA,48383,NA,1.09307359307359,0
1383,"/home/madeleine/Projects/PLY001/data/13838595462_data.csv",24,"female","Indian","English","BachelorsDegree",4,"full","specific",29,"discussAndTogether","age",7,NA,6920,7,1.09307359307359,0
1383,"/home/madeleine/Projects/PLY001/data/13838595462_data.csv",24,"female","Indian","English","BachelorsDegree",4,"full","specific",30,"discussAndTogether","gettingOnWell",0,"yes",3175,0,1.09307359307359,0
1383,"/home/madeleine/Projects/PLY001/data/13838595462_data.csv",24,"female","Indian","English","BachelorsDegree",4,"full","specific",31,"discussAndTogether","relationshipBetweenCharacters",1,"neutral",1584,1,1.09307359307359,0
1383,"/home/madeleine/Projects/PLY001/data/13838595462_data.csv",24,"female","Indian","English","BachelorsDegree",4,"full","specific",32,"discussAndTogether","workingTogether",0,"yes",2310,0,1.09307359307359,0
1383,"/home/madeleine/Projects/PLY001/data/13838595462_data.csv",24,"female","Indian","English","BachelorsDegree",4,"full","specific",33,"discussAndTogether","leftDominant",1,"disagree",6031,1,1.09307359307359,0
1383,"/home/madeleine/Projects/PLY001/data/13838595462_data.csv",24,"female","Indian","English","BachelorsDegree",4,"full","specific",34,"discussAndTogether","rightDominant",1,"disagree",6031,1,1.09307359307359,0
1383,"/home/madeleine/Projects/PLY001/data/13838595462_data.csv",24,"female","Indian","English","BachelorsDegree",4,"full","specific",35,"discussAndTogether","leftCooperative",3,"agree",2934,3,1.09307359307359,0
1383,"/home/madeleine/Projects/PLY001/data/13838595462_data.csv",24,"female","Indian","English","BachelorsDegree",4,"full","specific",36,"discussAndTogether","rightCooperative",4,"stronglyAgree",2934,4,1.09307359307359,0
1383,"/home/madeleine/Projects/PLY001/data/13838595462_data.csv",24,"female","Indian","English","BachelorsDegree",4,"full","specific",37,"discussAndTogether","leftCompetitive",3,"agree",4205,3,1.09307359307359,0
1383,"/home/madeleine/Projects/PLY001/data/13838595462_data.csv",24,"female","Indian","English","BachelorsDegree",4,"full","specific",38,"discussAndTogether","rightCompetitive",3,"agree",4205,3,1.09307359307359,0
1383,"/home/madeleine/Projects/PLY001/data/13838595462_data.csv",24,"female","Indian","English","BachelorsDegree",4,"full","specific",39,"discussAndTogether","leftFriendly",4,"stronglyAgree",5679,4,1.09307359307359,0
1383,"/home/madeleine/Projects/PLY001/data/13838595462_data.csv",24,"female","Indian","English","BachelorsDegree",4,"full","specific",40,"discussAndTogether","rightFriendly",3,"agree",5679,3,1.09307359307359,0
1383,"/home/madeleine/Projects/PLY001/data/13838595462_data.csv",24,"female","Indian","English","BachelorsDegree",4,"full","specific",41,"discussAndTogether","leftAggressive",3,"agree",2606,3,1.09307359307359,0
1383,"/home/madeleine/Projects/PLY001/data/13838595462_data.csv",24,"female","Indian","English","BachelorsDegree",4,"full","specific",42,"discussAndTogether","rightAggressive",4,"stronglyAgree",2606,4,1.09307359307359,0
1383,"/home/madeleine/Projects/PLY001/data/13838595462_data.csv",24,"female","Indian","English","BachelorsDegree",4,"full","specific",43,"discussAndTogether","leftEngaged",4,"stronglyAgree",3286,4,1.09307359307359,0
1383,"/home/madeleine/Projects/PLY001/data/13838595462_data.csv",24,"female","Indian","English","BachelorsDegree",4,"full","specific",44,"discussAndTogether","rightEngaged",4,"stronglyAgree",3286,4,1.09307359307359,0
1383,"/home/madeleine/Projects/PLY001/data/13838595462_data.csv",24,"female","Indian","English","BachelorsDegree",4,"full","specific",45,"discussAndTogether","leftFearful",3,"agree",2973,3,1.09307359307359,0
1383,"/home/madeleine/Projects/PLY001/data/13838595462_data.csv",24,"female","Indian","English","BachelorsDegree",4,"full","specific",46,"discussAndTogether","rightFearful",3,"agree",2973,3,1.09307359307359,0
1383,"/home/madeleine/Projects/PLY001/data/13838595462_data.csv",24,"female","Indian","English","BachelorsDegree",4,"full","specific",47,"discussAndTogether","leftSad",4,"stronglyAgree",4798,4,1.09307359307359,0
1383,"/home/madeleine/Projects/PLY001/data/13838595462_data.csv",24,"female","Indian","English","BachelorsDegree",4,"full","specific",48,"discussAndTogether","rightSad",3,"agree",4798,3,1.09307359307359,0
